emg0,emg1,emg2,emg3,emg4,emg5,emg6,emg7,fx,fy,fz,x,y,z,rx,ry,rz,t
-2,-1,-9,-4,-4,-1,-11,6,-0.045983388683473646,0.9919299201519056,0.5582441800741135,227.14935302734375,674.247802734375,148.1781463623047,87.22313690185547,175.8880157470703,103.53128814697266,0.21564912796020508
0,-3,-5,-3,0,-3,0,-3,-0.045983388683473646,0.9919299201519056,0.5582441800741135,227.14935302734375,674.247802734375,148.1781463623047,87.22313690185547,175.8880157470703,103.53128814697266,0.21665191650390625
-5,-7,0,-9,-1,-2,10,-7,-0.045983388683473646,0.9919299201519056,0.5582441800741135,227.14935302734375,674.247802734375,148.1781463623047,87.22313690185547,175.8880157470703,103.53128814697266,0.21665191650390625
7,3,0,-5,2,0,0,-6,-0.045983388683473646,0.9919299201519056,0.5582441800741135,227.14935302734375,674.247802734375,148.1781463623047,87.22313690185547,175.8880157470703,103.53128814697266,0.21665191650390625
-1,-3,1,6,-4,-3,-6,8,-0.03438115805951779,1.042270773966909,0.560638154745025,227.14935302734375,674.247802734375,148.1781463623047,87.22313690185547,175.8880157470703,103.53128814697266,0.2216649055480957
-4,5,-12,-10,-2,0,-5,-5,-0.03438115805951779,1.042270773966909,0.560638154745025,227.14935302734375,674.247802734375,148.1781463623047,87.22313690185547,175.8880157470703,103.53128814697266,0.2221684455871582
-6,-3,1,14,5,0,9,-6,-0.07311142173132039,1.119115610641291,0.5785103880246187,227.14935302734375,674.247802734375,148.1781463623047,87.22313690185547,175.8880157470703,103.53128814697266,0.22417092323303223
-1,3,6,-2,3,2,2,2,-0.07311142173132039,1.119115610641291,0.5785103880246187,227.14935302734375,674.247802734375,148.1781463623047,87.22313690185547,175.8880157470703,103.53128814697266,0.2251729965209961
3,2,-5,9,-1,-1,-7,3,-0.10820670885020137,1.2606521219975655,0.5519251465523577,227.14935302734375,674.247802734375,148.1781463623047,87.22313690185547,175.8880157470703,103.53128814697266,0.2351996898651123
-2,-3,2,-2,-5,-3,-3,6,-0.10820670885020137,1.2606521219975655,0.5519251465523577,227.14935302734375,674.247802734375,148.1781463623047,87.22313690185547,175.8880157470703,103.53128814697266,0.2351996898651123
1,-4,-14,-16,-4,-1,5,-14,-0.10820670885020137,1.2606521219975655,0.5519251465523577,227.14935302734375,674.247802734375,148.1781463623047,87.22313690185547,175.8880157470703,103.53128814697266,0.2351996898651123
0,3,10,9,2,0,-2,0,-0.10820670885020137,1.2606521219975655,0.5519251465523577,227.14935302734375,674.247802734375,148.1781463623047,87.22313690185547,175.8880157470703,103.53128814697266,0.23620176315307617
1,-1,-10,-6,-3,0,-8,3,-0.16633759669925566,1.3731157418956355,0.5878365400863694,227.14796447753906,674.248291015625,148.1781463623047,87.22325897216797,175.8880157470703,103.53128814697266,0.25023889541625977
-1,-4,-2,4,-1,-1,0,4,-0.16633759669925566,1.3731157418956355,0.5878365400863694,227.14796447753906,674.248291015625,148.1781463623047,87.22325897216797,175.8880157470703,103.53128814697266,0.25124096870422363
-4,0,1,-11,-3,-2,4,-18,-0.18884097856692347,1.4394285744657331,0.6434399033192101,227.14378356933594,674.2496948242188,148.17962646484375,87.22323608398438,175.8878936767578,103.5309066772461,0.27430152893066406
-1,-1,1,2,1,-1,-4,0,-0.18884097856692347,1.4394285744657331,0.6434399033192101,227.14378356933594,674.2496948242188,148.17962646484375,87.22323608398438,175.8878936767578,103.5309066772461,0.27530431747436523
-1,-2,0,-2,-1,0,-3,4,-0.18884097856692347,1.4394285744657331,0.6434399033192101,227.1439208984375,674.2501220703125,148.1803741455078,87.22285461425781,175.88778686523438,103.53053283691406,0.27730894088745117
-2,0,3,2,0,2,1,1,-0.18884097856692347,1.4394285744657331,0.6434399033192101,227.1439208984375,674.2501220703125,148.1803741455078,87.22285461425781,175.88778686523438,103.53053283691406,0.27730894088745117
0,-1,5,-1,2,1,5,-2,-0.19240062508782094,1.5287356547730637,0.7133009804040558,227.14251708984375,674.2506103515625,148.1818389892578,87.22260284423828,175.88766479492188,103.5301513671875,0.29636716842651367
2,0,-5,-5,-2,-1,-2,8,-0.19240062508782094,1.5287356547730637,0.7133009804040558,227.14251708984375,674.2506103515625,148.1818389892578,87.22260284423828,175.88766479492188,103.5301513671875,0.2973668575286865
-6,0,1,1,-2,-2,-4,-13,-0.19240062508782094,1.5287356547730637,0.7133009804040558,227.14251708984375,674.2506103515625,148.1818389892578,87.22260284423828,175.88766479492188,103.5301513671875,0.297870397567749
0,0,-5,-2,0,-2,0,0,-0.19240062508782094,1.5287356547730637,0.7133009804040558,227.14251708984375,674.2506103515625,148.1818389892578,87.22260284423828,175.88766479492188,103.5301513671875,0.297870397567749
-2,1,5,1,1,0,3,7,-0.20279540569111898,1.5673601569279845,0.7351667465121495,227.14251708984375,674.2506103515625,148.1818389892578,87.22260284423828,175.88766479492188,103.5301513671875,0.3108978271484375
-4,-3,1,3,-1,-1,-3,-2,-0.20279540569111898,1.5673601569279845,0.7351667465121495,227.1425323486328,674.2506103515625,148.1833038330078,87.22222137451172,175.88755798339844,103.52977752685547,0.3119008541107178
3,0,7,1,0,-2,-6,-17,-0.202585091162232,1.5846092421017728,0.7035086067088555,227.1425323486328,674.2506103515625,148.1833038330078,87.22222137451172,175.88755798339844,103.52977752685547,0.31290316581726074
1,-1,1,-1,0,0,3,5,-0.202585091162232,1.5846092421017728,0.7035086067088555,227.1425323486328,674.2506103515625,148.1833038330078,87.22222137451172,175.88755798339844,103.52977752685547,0.3139059543609619
1,1,4,-1,-3,-1,1,-4,-0.24427747659499321,1.582339501635572,0.6962254226887095,227.14112854003906,674.2510986328125,148.1833038330078,87.22234344482422,175.88755798339844,103.52977752685547,0.3244328498840332
2,-4,-9,-13,-4,-2,-2,6,-0.24427747659499321,1.582339501635572,0.6962254226887095,227.14112854003906,674.2510986328125,148.1833038330078,87.22234344482422,175.88755798339844,103.52977752685547,0.3244328498840332
-2,-1,13,9,4,0,8,-10,-0.3423796961683512,1.7559271098885172,0.7051806006770373,227.14112854003906,674.2510986328125,148.1833038330078,87.22234344482422,175.88755798339844,103.52977752685547,0.36584973335266113
3,-3,-1,-9,-4,0,4,-3,-0.3339187497572926,1.7728834714782786,0.716374407959032,227.14112854003906,674.2510986328125,148.1833038330078,87.22234344482422,175.88755798339844,103.52977752685547,0.3668522834777832
-2,6,-11,-6,-2,-1,-13,12,-0.3339187497572926,1.7728834714782786,0.716374407959032,227.14112854003906,674.2510986328125,148.1833038330078,87.22234344482422,175.88755798339844,103.52977752685547,0.3668522834777832
-3,0,8,15,2,2,1,3,-0.3339187497572926,1.7728834714782786,0.716374407959032,227.14112854003906,674.2510986328125,148.1833038330078,87.22234344482422,175.88755798339844,103.52977752685547,0.3668522834777832
-4,0,-1,-5,-1,1,7,2,-0.27551824998641317,1.7902030083755567,0.7710893380332337,227.14112854003906,674.2510986328125,148.18478393554688,87.22196197509766,175.88743591308594,103.5293960571289,0.37988924980163574
-4,-2,3,-3,-1,-3,0,-16,-0.27551824998641317,1.7902030083755567,0.7710893380332337,227.14112854003906,674.2510986328125,148.18478393554688,87.22196197509766,175.88743591308594,103.5293960571289,0.37988924980163574
-2,-5,-14,-10,-8,-5,-12,6,-0.27551824998641317,1.7902030083755567,0.7710893380332337,227.14112854003906,674.2510986328125,148.18478393554688,87.22196197509766,175.88743591308594,103.5293960571289,0.37988924980163574
1,2,-1,2,1,-2,-3,-8,-0.27551824998641317,1.7902030083755567,0.7710893380332337,227.14112854003906,674.2510986328125,148.18478393554688,87.22196197509766,175.88743591308594,103.5293960571289,0.37988924980163574
-6,-4,8,4,-1,0,6,3,-0.27551824998641317,1.7902030083755567,0.7710893380332337,227.14112854003906,674.2510986328125,148.18478393554688,87.22196197509766,175.88743591308594,103.5293960571289,0.37988924980163574
-1,1,2,-2,3,1,9,3,-0.27551824998641317,1.7902030083755567,0.7710893380332337,227.14112854003906,674.2510986328125,148.18478393554688,87.22196197509766,175.88743591308594,103.5293960571289,0.37988924980163574
4,-4,-12,-4,-5,-2,-9,6,-0.2616517526002794,1.7949791623341562,0.7637467540463736,227.14112854003906,674.2510986328125,148.18478393554688,87.22196197509766,175.88743591308594,103.5293960571289,0.38590216636657715
0,0,-1,-6,-5,0,-2,-2,-0.2616517526002794,1.7949791623341562,0.7637467540463736,227.14112854003906,674.2510986328125,148.18478393554688,87.22196197509766,175.88743591308594,103.5293960571289,0.38590216636657715
-1,-1,3,5,3,3,6,-6,-0.23854971906216738,1.7866951555592305,0.801918459615151,227.14126586914062,674.2515258789062,148.18553161621094,87.22158813476562,175.8873291015625,103.52902221679688,0.39993882179260254
-1,-1,4,1,1,4,4,2,-0.23854971906216738,1.7866951555592305,0.801918459615151,227.14126586914062,674.2515258789062,148.18553161621094,87.22158813476562,175.8873291015625,103.52902221679688,0.39993882179260254
-3,2,0,4,-1,-2,-10,-5,-0.24602625562279967,1.7667811027421056,0.759346322888716,227.14126586914062,674.2515258789062,148.18553161621094,87.22158813476562,175.8873291015625,103.52902221679688,0.40895915031433105
5,-2,0,5,-1,-2,0,4,-0.24602625562279967,1.7667811027421056,0.759346322888716,227.14126586914062,674.2515258789062,148.18553161621094,87.22158813476562,175.8873291015625,103.52902221679688,0.40895915031433105
-1,-11,-12,-16,-6,-5,2,-9,-0.22769414965357399,1.7633545989858859,0.7368276124962071,227.14126586914062,674.2515258789062,148.18553161621094,87.22158813476562,175.8873291015625,103.52902221679688,0.4149742126464844
4,14,0,1,5,2,1,3,-0.22769414965357399,1.7633545989858859,0.7368276124962071,227.14126586914062,674.2515258789062,148.18553161621094,87.22158813476562,175.8873291015625,103.52902221679688,0.4149742126464844
-1,1,11,18,3,2,-1,2,-0.21960453699161678,1.772963827361325,0.7325951822241114,227.14126586914062,674.2515258789062,148.18553161621094,87.22158813476562,175.8873291015625,103.52902221679688,0.43853759765625
-4,-3,-8,-6,-3,-1,-2,-1,-0.21960453699161678,1.772963827361325,0.7325951822241114,227.14126586914062,674.2515258789062,148.18553161621094,87.22158813476562,175.8873291015625,103.52902221679688,0.43853759765625
-4,-1,0,-3,-1,-1,1,-5,-0.21960453699161678,1.772963827361325,0.7325951822241114,227.14126586914062,674.2515258789062,148.18553161621094,87.22158813476562,175.8873291015625,103.52902221679688,0.43853759765625
0,-2,-5,-8,-5,-4,-1,-1,-0.21960453699161678,1.772963827361325,0.7325951822241114,227.14126586914062,674.2515258789062,148.18553161621094,87.22158813476562,175.8873291015625,103.52902221679688,0.43953919410705566
3,0,-4,-4,-2,0,-2,1,-0.2061963227145205,1.7497761403901593,0.7020183357337098,227.14154052734375,674.25146484375,148.18551635742188,87.2197036743164,175.88735961914062,103.52709197998047,0.4595918655395508
-2,0,2,4,1,-1,-2,-11,-0.2061963227145205,1.7497761403901593,0.7020183357337098,227.14154052734375,674.25146484375,148.18551635742188,87.2197036743164,175.88735961914062,103.52709197998047,0.4595918655395508
4,0,4,1,-1,-4,-1,-10,-0.20595000323785972,1.7731870609674785,0.7193618498654492,227.14154052734375,674.25146484375,148.18551635742188,87.2197036743164,175.88735961914062,103.52709197998047,0.4675889015197754
-3,-3,-2,-6,-4,-1,-3,0,-0.20595000323785972,1.7731870609674785,0.7193618498654492,227.14154052734375,674.25146484375,148.18551635742188,87.2197036743164,175.88735961914062,103.52709197998047,0.4675889015197754
0,0,2,0,-1,-1,-2,-1,-0.1926937301677306,1.7717414769533935,0.7040048689398771,227.14154052734375,674.25146484375,148.18551635742188,87.2197036743164,175.88735961914062,103.52709197998047,0.4747951030731201
-3,-3,-7,0,0,0,3,7,-0.1926937301677306,1.7717414769533935,0.7040048689398771,227.14154052734375,674.25146484375,148.18551635742188,87.2197036743164,175.88735961914062,103.52709197998047,0.4747951030731201
-2,5,0,3,2,2,1,-3,-0.1926937301677306,1.7717414769533935,0.7040048689398771,227.14154052734375,674.25146484375,148.18551635742188,87.2197036743164,175.88735961914062,103.52709197998047,0.4759995937347412
-2,-3,3,4,3,1,1,-1,-0.1926937301677306,1.7717414769533935,0.7040048689398771,227.14154052734375,674.25146484375,148.18551635742188,87.2197036743164,175.88735961914062,103.52709197998047,0.4759995937347412
-1,-4,2,4,-2,-2,-2,-2,-0.24065958958580758,1.8678825556168792,0.7274201883207164,227.14154052734375,674.25146484375,148.18551635742188,87.2197036743164,175.88735961914062,103.52709197998047,0.4987637996673584
-1,-3,-6,-4,-3,-4,-2,2,-0.24065958958580758,1.8678825556168792,0.7274201883207164,227.14154052734375,674.25146484375,148.18551635742188,87.2197036743164,175.88735961914062,103.52709197998047,0.4987637996673584
-4,-3,-8,-5,-2,-1,-1,-4,-0.24065958958580758,1.8678825556168792,0.7274201883207164,227.14154052734375,674.25146484375,148.18551635742188,87.2197036743164,175.88735961914062,103.52709197998047,0.4987637996673584
3,3,3,-4,-1,0,-3,-1,-0.24065958958580758,1.8678825556168792,0.7274201883207164,227.14154052734375,674.25146484375,148.18551635742188,87.2197036743164,175.88735961914062,103.52709197998047,0.4987637996673584
-3,1,-2,-1,-1,-3,2,9,-0.25320677747040443,1.9046698737233207,0.6771573024333732,227.14154052734375,674.25146484375,148.18551635742188,87.2197036743164,175.88735961914062,103.52709197998047,0.511730432510376
-3,-1,4,2,3,2,0,-1,-0.25320677747040443,1.9046698737233207,0.6771573024333732,227.14154052734375,674.25146484375,148.18551635742188,87.2197036743164,175.88735961914062,103.52709197998047,0.5127339363098145
-1,-2,-5,-2,-4,0,3,-4,-0.25875010759418693,1.9466799345952837,0.682806878229195,227.14154052734375,674.25146484375,148.18551635742188,87.2197036743164,175.88735961914062,103.52709197998047,0.5201172828674316
0,-6,-11,-8,-2,-3,-3,1,-0.25875010759418693,1.9466799345952837,0.682806878229195,227.14154052734375,674.25146484375,148.18551635742188,87.2197036743164,175.88735961914062,103.52709197998047,0.5201172828674316
3,4,20,12,0,-2,-3,-7,-0.30517428202672103,1.9837114762275585,0.6360344693352372,227.14154052734375,674.25146484375,148.18699645996094,87.21932220458984,175.88723754882812,103.5267105102539,0.535062313079834
3,-2,-4,-6,-3,-1,-1,-3,-0.30517428202672103,1.9837114762275585,0.6360344693352372,227.14154052734375,674.25146484375,148.18699645996094,87.21932220458984,175.88723754882812,103.5267105102539,0.5363562107086182
0,3,2,1,-1,0,2,6,-0.30517428202672103,1.9837114762275585,0.6360344693352372,227.14154052734375,674.25146484375,148.18699645996094,87.21932220458984,175.88723754882812,103.5267105102539,0.5363562107086182
-3,-2,-1,-5,-2,0,1,-1,-0.30517428202672103,1.9837114762275585,0.6360344693352372,227.14154052734375,674.25146484375,148.18699645996094,87.21932220458984,175.88723754882812,103.5267105102539,0.5363562107086182
-4,6,6,7,4,0,-3,-1,-0.3329291255579219,1.9996802679276584,0.7009921038842055,227.14154052734375,674.25146484375,148.18699645996094,87.21932220458984,175.88723754882812,103.5267105102539,0.5574009418487549
-1,1,1,3,-2,-3,-1,4,-0.3329291255579219,1.9996802679276584,0.7009921038842055,227.14154052734375,674.25146484375,148.18699645996094,87.21932220458984,175.88723754882812,103.5267105102539,0.5584018230438232
-1,-2,-6,-9,-5,-1,0,0,-0.3329291255579219,1.9996802679276584,0.7009921038842055,227.14154052734375,674.25146484375,148.18699645996094,87.21932220458984,175.88723754882812,103.5267105102539,0.5594265460968018
-1,-1,-3,-4,0,-1,-1,-13,-0.3329291255579219,1.9996802679276584,0.7009921038842055,227.14154052734375,674.25146484375,148.18699645996094,87.21932220458984,175.88723754882812,103.5267105102539,0.5594265460968018
-3,-1,-7,-4,0,0,1,14,-0.3594830865173527,2.0169958519392672,0.6696313588085233,227.14154052734375,674.25146484375,148.18699645996094,87.21932220458984,175.88723754882812,103.5267105102539,0.5715410709381104
-3,-2,1,0,-2,0,-3,-12,-0.36676233627702276,2.0256570394973696,0.6542288129793521,227.14154052734375,674.25146484375,148.18699645996094,87.21932220458984,175.88723754882812,103.5267105102539,0.5715410709381104
-2,1,0,-2,1,-2,0,3,-0.36676233627702276,2.0256570394973696,0.6542288129793521,227.14154052734375,674.25146484375,148.18699645996094,87.21932220458984,175.88723754882812,103.5267105102539,0.580439567565918
1,-1,-3,1,1,-1,-2,5,-0.36676233627702276,2.0256570394973696,0.6542288129793521,227.14154052734375,674.25146484375,148.18699645996094,87.21932220458984,175.88723754882812,103.5267105102539,0.580439567565918
-5,-2,1,-3,0,1,-3,-16,-0.4193027885905174,2.03434762008884,0.6626793200455928,227.14154052734375,674.25146484375,148.18699645996094,87.21932220458984,175.88723754882812,103.5267105102539,0.5944750308990479
-1,-2,-1,5,2,0,-1,9,-0.4193027885905174,2.03434762008884,0.6626793200455928,227.14154052734375,674.25146484375,148.18699645996094,87.21932220458984,175.88723754882812,103.5267105102539,0.5954780578613281
-2,0,4,4,-1,0,-1,-6,-0.4193027885905174,2.03434762008884,0.6626793200455928,227.14154052734375,674.25146484375,148.18699645996094,87.21932220458984,175.88723754882812,103.5267105102539,0.5954780578613281
7,-1,-3,0,-2,-2,-3,3,-0.4193027885905174,2.03434762008884,0.6626793200455928,227.14154052734375,674.25146484375,148.18699645996094,87.21932220458984,175.88723754882812,103.5267105102539,0.5964808464050293
0,-1,-5,1,0,3,1,-5,-0.40379456334713937,2.0108174518357584,0.6400063053853775,227.14154052734375,674.25146484375,148.18699645996094,87.21932220458984,175.88723754882812,103.5267105102539,0.6181883811950684
2,2,2,-5,-1,-1,0,-1,-0.4104652169221567,1.9848958601948166,0.6454582397835861,227.14154052734375,674.25146484375,148.18699645996094,87.21932220458984,175.88723754882812,103.5267105102539,0.6181883811950684
-2,-2,-2,-4,0,-1,-2,-4,-0.4104652169221567,1.9848958601948166,0.6454582397835861,227.14154052734375,674.25146484375,148.18699645996094,87.21932220458984,175.88723754882812,103.5267105102539,0.6191909313201904
-4,-2,1,4,0,-1,-2,4,-0.4104652169221567,1.9848958601948166,0.6454582397835861,227.14154052734375,674.25146484375,148.18699645996094,87.21932220458984,175.88723754882812,103.5267105102539,0.6191909313201904
-4,-4,-5,-6,-4,-3,-3,-4,-0.40348150547073613,1.9739409046768244,0.5914477646730166,227.14015197753906,674.251953125,148.18699645996094,87.21944427490234,175.88723754882812,103.5267105102539,0.6327261924743652
2,1,1,-11,-3,-3,-2,-2,-0.4313641652710401,1.9540523721309282,0.5999579538971963,227.14015197753906,674.251953125,148.18699645996094,87.21944427490234,175.88723754882812,103.5267105102539,0.6327261924743652
-3,1,-5,3,3,2,2,0,-0.42092579896324417,1.9612418615190599,0.6272204961513992,227.14015197753906,674.251953125,148.18699645996094,87.21944427490234,175.88723754882812,103.5267105102539,0.6407465934753418
1,1,2,8,1,1,-2,0,-0.42092579896324417,1.9612418615190599,0.6272204961513992,227.14015197753906,674.251953125,148.18699645996094,87.21944427490234,175.88723754882812,103.5267105102539,0.641749382019043
-2,-2,-3,-3,-1,0,1,1,-0.4579018043968185,1.9784892259561715,0.6269845050481602,227.14015197753906,674.251953125,148.18846130371094,87.21907043457031,175.8871307373047,103.52633666992188,0.6557860374450684
-1,0,-1,6,2,1,0,-2,-0.47230620052237793,1.9871809667047724,0.6524606413136356,227.14015197753906,674.251953125,148.18846130371094,87.21907043457031,175.8871307373047,103.52633666992188,0.6567885875701904
1,-1,0,-8,-4,-3,-1,0,-0.4665465690669408,1.9988699093178868,0.6555008747067916,227.14015197753906,674.251953125,148.18846130371094,87.21907043457031,175.8871307373047,103.52633666992188,0.6628046035766602
-1,-4,-3,-5,-4,-2,-1,-4,-0.4665465690669408,1.9988699093178868,0.6555008747067916,227.14015197753906,674.251953125,148.18846130371094,87.21907043457031,175.8871307373047,103.52633666992188,0.6628046035766602
0,3,-3,-8,2,-1,2,9,-0.49059093164996725,2.064871818449576,0.6313211208422833,227.14015197753906,674.251953125,148.18846130371094,87.21907043457031,175.8871307373047,103.52633666992188,0.6784284114837646
-4,1,-3,1,1,0,0,-8,-0.49059093164996725,2.064871818449576,0.6313211208422833,227.14015197753906,674.251953125,148.18846130371094,87.21907043457031,175.8871307373047,103.52633666992188,0.6784284114837646
-1,-2,4,1,3,-1,-1,-3,-0.49059093164996725,2.064871818449576,0.6313211208422833,227.14015197753906,674.251953125,148.18846130371094,87.21907043457031,175.8871307373047,103.52633666992188,0.6798262596130371
0,0,4,3,-1,-1,-1,6,-0.49059093164996725,2.064871818449576,0.6313211208422833,227.14015197753906,674.251953125,148.18846130371094,87.21907043457031,175.8871307373047,103.52633666992188,0.6811726093292236
1,-2,-3,-7,-5,-2,-1,-2,-0.5613593921117991,2.101050124462425,0.5927393145534544,227.13876342773438,674.25244140625,148.18846130371094,87.21918487548828,175.8871307373047,103.52633666992188,0.7164292335510254
2,-1,-5,-7,1,3,1,5,-0.5613593921117991,2.101050124462425,0.5927393145534544,227.13876342773438,674.25244140625,148.18846130371094,87.21918487548828,175.8871307373047,103.52633666992188,0.7164292335510254
0,2,7,9,4,1,-1,-3,-0.56961909643896,2.1118856321961306,0.6136867445290073,227.13876342773438,674.25244140625,148.18846130371094,87.21918487548828,175.8871307373047,103.52633666992188,0.7185170650482178
0,-1,3,6,-1,-1,0,2,-0.56961909643896,2.1118856321961306,0.6136867445290073,227.13876342773438,674.25244140625,148.18846130371094,87.21918487548828,175.8871307373047,103.52633666992188,0.7185170650482178
-2,-2,-1,-9,-2,2,4,5,-0.56961909643896,2.1118856321961306,0.6136867445290073,227.13876342773438,674.25244140625,148.18846130371094,87.21918487548828,175.8871307373047,103.52633666992188,0.719613790512085
-1,0,-10,-5,0,-4,-6,-13,-0.56961909643896,2.1118856321961306,0.6136867445290073,227.13876342773438,674.25244140625,148.18846130371094,87.21918487548828,175.8871307373047,103.52633666992188,0.719613790512085
-3,3,14,19,5,3,-2,-5,-0.56961909643896,2.1118856321961306,0.6136867445290073,227.13876342773438,674.25244140625,148.18846130371094,87.21918487548828,175.8871307373047,103.52633666992188,0.7227482795715332
2,-2,-1,-1,-3,-2,-1,1,-0.56961909643896,2.1118856321961306,0.6136867445290073,227.13876342773438,674.25244140625,148.18846130371094,87.21918487548828,175.8871307373047,103.52633666992188,0.7227482795715332
3,-3,-5,-3,-3,-2,1,3,-0.6085032288630564,2.134830560907221,0.6346230691842172,227.13876342773438,674.25244140625,148.18846130371094,87.21918487548828,175.8871307373047,103.52633666992188,0.7375748157501221
-3,-2,-2,-7,-5,-3,0,5,-0.6064190849246222,2.132505864543871,0.6774069683153401,227.13876342773438,674.25244140625,148.18846130371094,87.21918487548828,175.8871307373047,103.52633666992188,0.7375748157501221
2,-3,-13,-17,-6,-2,1,-5,-0.6168719361511873,2.1392738733627437,0.6845047160470477,227.13876342773438,674.25244140625,148.18846130371094,87.21918487548828,175.8871307373047,103.52633666992188,0.7450070381164551
3,4,0,0,0,-2,-7,-12,-0.6168719361511873,2.1392738733627437,0.6845047160470477,227.13876342773438,674.25244140625,148.18846130371094,87.21918487548828,175.8871307373047,103.52633666992188,0.7450070381164551
3,-3,10,15,3,-1,0,-4,-0.6790540719626854,2.1752238678203057,0.7162765230214971,227.13876342773438,674.25244140625,148.18846130371094,87.21918487548828,175.8871307373047,103.52633666992188,0.7601630687713623
-1,-3,-3,0,-3,0,0,3,-0.6790540719626854,2.1752238678203057,0.7162765230214971,227.13876342773438,674.25244140625,148.18846130371094,87.21918487548828,175.8871307373047,103.52633666992188,0.7622621059417725
1,-6,-6,-13,-3,-3,2,-1,-0.6790540719626854,2.1752238678203057,0.7162765230214971,227.13876342773438,674.25244140625,148.18846130371094,87.21918487548828,175.8871307373047,103.52633666992188,0.7622621059417725
-2,2,-4,-4,3,0,-1,4,-0.7028110833116713,2.190467798520902,0.7077469229394562,227.13876342773438,674.25244140625,148.18846130371094,87.21918487548828,175.8871307373047,103.52633666992188,0.7645955085754395
-1,2,12,19,2,0,1,-3,-0.7639190293080212,2.225562783726615,0.6808942412387766,227.13876342773438,674.25244140625,148.18846130371094,87.21918487548828,175.8871307373047,103.52633666992188,0.7750458717346191
1,-2,-1,-5,-5,0,0,-4,-0.7639190293080212,2.225562783726615,0.6808942412387766,227.13876342773438,674.25244140625,148.18846130371094,87.21918487548828,175.8871307373047,103.52633666992188,0.7750458717346191
-1,1,-5,-5,-1,1,-1,2,-0.7639190293080212,2.225562783726615,0.6808942412387766,227.13876342773438,674.25244140625,148.18846130371094,87.21918487548828,175.8871307373047,103.52633666992188,0.7760498523712158
-1,0,5,-3,-1,-1,-2,3,-0.7639190293080212,2.225562783726615,0.6808942412387766,227.13876342773438,674.25244140625,148.18846130371094,87.21918487548828,175.8871307373047,103.52633666992188,0.7760498523712158
-2,-4,-6,-4,0,1,-1,-5,-0.8617306425343788,2.2961476141663266,0.6759265959359585,227.13876342773438,674.25244140625,148.18846130371094,87.21918487548828,175.8871307373047,103.52633666992188,0.7993118762969971
-1,-4,3,2,-1,0,0,1,-0.8617306425343788,2.2961476141663266,0.6759265959359585,227.13876342773438,674.25244140625,148.18846130371094,87.21918487548828,175.8871307373047,103.52633666992188,0.7993118762969971
-4,-2,-4,-6,-3,-1,0,-1,-0.8617306425343788,2.2961476141663266,0.6759265959359585,227.13876342773438,674.25244140625,148.18846130371094,87.21918487548828,175.8871307373047,103.52633666992188,0.7993118762969971
-3,-3,0,-3,-2,-2,0,1,-0.8617306425343788,2.2961476141663266,0.6759265959359585,227.13876342773438,674.25244140625,148.18846130371094,87.21918487548828,175.8871307373047,103.52633666992188,0.7993118762969971
4,1,-4,-5,1,0,0,-7,-0.931950676148981,2.3014046145036655,0.6589320891288357,227.13876342773438,674.25244140625,148.18846130371094,87.21918487548828,175.8871307373047,103.52633666992188,0.8203094005584717
1,1,9,12,5,0,2,4,-0.931950676148981,2.3014046145036655,0.6589320891288357,227.13876342773438,674.25244140625,148.18846130371094,87.21918487548828,175.8871307373047,103.52633666992188,0.8203094005584717
-3,0,1,5,1,-3,-5,-19,-0.931950676148981,2.3014046145036655,0.6589320891288357,227.13876342773438,674.25244140625,148.18846130371094,87.21918487548828,175.8871307373047,103.52633666992188,0.8203094005584717
1,0,-4,-2,-1,-1,-1,1,-0.931950676148981,2.3014046145036655,0.6589320891288357,227.13876342773438,674.25244140625,148.18846130371094,87.21918487548828,175.8871307373047,103.52633666992188,0.8217885494232178
-4,-2,-6,-9,-8,-2,-1,-6,-0.9407586715604364,2.280334176585583,0.564071721383544,227.13876342773438,674.25244140625,148.18846130371094,87.21918487548828,175.8871307373047,103.52633666992188,0.8361520767211914
-1,-5,-9,-15,-5,-3,-2,-4,-0.9407586715604364,2.280334176585583,0.564071721383544,227.13876342773438,674.25244140625,148.18846130371094,87.21918487548828,175.8871307373047,103.52633666992188,0.8361520767211914
2,0,0,-1,1,3,2,7,-0.9407586715604364,2.280334176585583,0.564071721383544,227.13876342773438,674.25244140625,148.18846130371094,87.21918487548828,175.8871307373047,103.52633666992188,0.8361520767211914
-6,6,15,20,8,3,-1,0,-0.9407586715604364,2.280334176585583,0.564071721383544,227.13876342773438,674.25244140625,148.18846130371094,87.21918487548828,175.8871307373047,103.52633666992188,0.8361520767211914
0,-1,10,11,-1,0,1,1,-0.8115344778250944,2.0626175293123867,0.3842309585020668,227.13876342773438,674.25244140625,148.18699645996094,87.21956634521484,175.88723754882812,103.5267105102539,0.865469217300415
-5,-1,-5,-5,-2,-2,0,1,-0.8115344778250944,2.0626175293123867,0.3842309585020668,227.13876342773438,674.25244140625,148.18699645996094,87.21956634521484,175.88723754882812,103.5267105102539,0.865469217300415
1,-5,-7,-7,-7,-2,-1,-1,-0.8115344778250944,2.0626175293123867,0.3842309585020668,227.13876342773438,674.25244140625,148.18699645996094,87.21956634521484,175.88723754882812,103.5267105102539,0.8666231632232666
-1,-4,-18,-17,-6,-4,-4,1,-0.7772939375693967,2.027771174544598,0.35355887382568174,227.13876342773438,674.25244140625,148.18699645996094,87.21956634521484,175.88723754882812,103.5267105102539,0.8678441047668457
-1,4,3,5,6,2,3,1,-0.6730614207168183,1.9117913866136649,0.38432103627365743,227.1386260986328,674.251953125,148.18624877929688,87.21994018554688,175.88735961914062,103.52709197998047,0.8816318511962891
0,-2,2,1,-1,-1,0,-5,-0.6730614207168183,1.9117913866136649,0.38432103627365743,227.1386260986328,674.251953125,148.18624877929688,87.21994018554688,175.88735961914062,103.52709197998047,0.8816318511962891
-2,-2,-2,-5,-1,1,0,5,-0.6730614207168183,1.9117913866136649,0.38432103627365743,227.1386260986328,674.251953125,148.18624877929688,87.21994018554688,175.88735961914062,103.52709197998047,0.8829784393310547
0,0,2,7,-1,-2,-3,-8,-0.6730614207168183,1.9117913866136649,0.38432103627365743,227.1386260986328,674.251953125,148.18624877929688,87.21994018554688,175.88735961914062,103.52709197998047,0.8829784393310547
1,-3,0,0,0,1,-2,-15,-0.5264616216807309,1.7922923098682735,0.43053488483204694,227.1386260986328,674.251953125,148.18624877929688,87.21994018554688,175.88735961914062,103.52709197998047,0.904231071472168
1,5,5,3,-1,-1,0,5,-0.5264616216807309,1.7922923098682735,0.43053488483204694,227.1386260986328,674.251953125,148.18624877929688,87.21994018554688,175.88735961914062,103.52709197998047,0.904231071472168
-2,1,0,1,2,-1,3,-3,-0.5264616216807309,1.7922923098682735,0.43053488483204694,227.1386260986328,674.251953125,148.18624877929688,87.21994018554688,175.88735961914062,103.52709197998047,0.904231071472168
-3,-2,-5,-7,-2,1,-2,3,-0.5264616216807309,1.7922923098682735,0.43053488483204694,227.1386260986328,674.251953125,148.18624877929688,87.21994018554688,175.88735961914062,103.52709197998047,0.9052608013153076
0,-1,-5,3,1,-1,0,0,-0.4916452753458439,1.7557630227029004,0.46097667264220965,227.1386260986328,674.251953125,148.18624877929688,87.21994018554688,175.88735961914062,103.52709197998047,0.9182660579681396
0,-6,-13,-13,-7,-3,-2,-1,-0.4916452753458439,1.7557630227029004,0.46097667264220965,227.1386260986328,674.251953125,148.18624877929688,87.21994018554688,175.88735961914062,103.52709197998047,0.9182660579681396
-4,3,1,-5,-1,-4,1,0,-0.4916452753458439,1.7557630227029004,0.46097667264220965,227.1386260986328,674.251953125,148.18624877929688,87.21994018554688,175.88735961914062,103.52709197998047,0.9182660579681396
4,6,20,22,6,5,1,0,-0.4916452753458439,1.7557630227029004,0.46097667264220965,227.1386260986328,674.251953125,148.18624877929688,87.21994018554688,175.88735961914062,103.52709197998047,0.9182660579681396
-6,-6,-11,-5,-3,-4,-1,-1,-0.5425865554732798,1.811010406364492,0.5193433143010122,227.1386260986328,674.251953125,148.18624877929688,87.21994018554688,175.88735961914062,103.52709197998047,0.9408230781555176
2,0,-1,-2,1,1,2,2,-0.5605678474487775,1.8165217608640254,0.5331952317304648,227.1386260986328,674.251953125,148.18624877929688,87.21994018554688,175.88735961914062,103.52709197998047,0.9418261051177979
1,0,2,7,0,-1,1,-1,-0.5605678474487775,1.8165217608640254,0.5331952317304648,227.1386260986328,674.251953125,148.18624877929688,87.21994018554688,175.88735961914062,103.52709197998047,0.9428284168243408
2,-2,-4,-6,-4,-2,-4,-2,-0.5605678474487775,1.8165217608640254,0.5331952317304648,227.1386260986328,674.251953125,148.18624877929688,87.21994018554688,175.88735961914062,103.52709197998047,0.9428284168243408
-1,1,1,-1,0,-1,-1,2,-0.5969377780261618,1.8309803887531795,0.5014857850093495,227.1386260986328,674.251953125,148.18624877929688,87.21994018554688,175.88735961914062,103.52709197998047,0.9548606872558594
-4,-1,2,-1,-2,-2,0,1,-0.5969377780261618,1.8309803887531795,0.5014857850093495,227.1386260986328,674.251953125,148.18624877929688,87.21994018554688,175.88735961914062,103.52709197998047,0.9558625221252441
-1,-2,-6,0,1,0,-1,7,-0.5969377780261618,1.8309803887531795,0.5014857850093495,227.1386260986328,674.251953125,148.18624877929688,87.21994018554688,175.88735961914062,103.52709197998047,0.9558625221252441
2,-2,0,-2,-2,2,-1,-12,-0.5969377780261618,1.8309803887531795,0.5014857850093495,227.1386260986328,674.251953125,148.18624877929688,87.21994018554688,175.88735961914062,103.52709197998047,0.9558625221252441
2,-3,-7,-4,-2,-1,-2,1,-0.6757569017086671,1.854111271830122,0.4889983986533998,227.1386260986328,674.251953125,148.18624877929688,87.21994018554688,175.88735961914062,103.52709197998047,0.9869441986083984
1,-4,1,2,0,-2,-1,-5,-0.6757569017086671,1.854111271830122,0.4889983986533998,227.1386260986328,674.251953125,148.18624877929688,87.21994018554688,175.88735961914062,103.52709197998047,0.9869441986083984
2,3,0,-4,1,-1,1,3,-0.6757569017086671,1.854111271830122,0.4889983986533998,227.1386260986328,674.251953125,148.18624877929688,87.21994018554688,175.88735961914062,103.52709197998047,0.9869441986083984
3,-1,-3,4,0,1,1,6,-0.6757569017086671,1.854111271830122,0.4889983986533998,227.1386260986328,674.251953125,148.18624877929688,87.21994018554688,175.88735961914062,103.52709197998047,0.9869441986083984
2,4,9,2,-2,-2,1,-4,-0.6906864894317137,1.8560087663432472,0.4391590529916381,227.1386260986328,674.251953125,148.18624877929688,87.21994018554688,175.88735961914062,103.52709197998047,1.0009806156158447
-1,-1,-1,4,1,-1,3,6,-0.6906864894317137,1.8560087663432472,0.4391590529916381,227.1386260986328,674.251953125,148.18624877929688,87.21994018554688,175.88735961914062,103.52709197998047,1.0009806156158447
0,-4,-2,-1,-2,-1,-2,-7,-0.6906864894317137,1.8560087663432472,0.4391590529916381,227.1386260986328,674.251953125,148.18624877929688,87.21994018554688,175.88735961914062,103.52709197998047,1.0019831657409668
-3,-4,-7,-9,-6,-4,-9,-10,-0.6906864894317137,1.8560087663432472,0.4391590529916381,227.1386260986328,674.251953125,148.18624877929688,87.21994018554688,175.88735961914062,103.52709197998047,1.0019831657409668
-3,2,-4,-5,0,0,1,9,-0.696803186903318,1.8375247068119456,0.3825960543681195,227.1386260986328,674.251953125,148.18624877929688,87.21994018554688,175.88735961914062,103.52709197998047,1.016016960144043
-5,2,4,4,2,3,2,-6,-0.696803186903318,1.8375247068119456,0.3825960543681195,227.1386260986328,674.251953125,148.18624877929688,87.21994018554688,175.88735961914062,103.52709197998047,1.0170190334320068
-2,-1,-1,-1,-2,1,1,0,-0.696803186903318,1.8375247068119456,0.3825960543681195,227.1386260986328,674.251953125,148.18624877929688,87.21994018554688,175.88735961914062,103.52709197998047,1.0170190334320068
-1,0,-6,-4,-1,-1,1,5,-0.696803186903318,1.8375247068119456,0.3825960543681195,227.1386260986328,674.251953125,148.18624877929688,87.21994018554688,175.88735961914062,103.52709197998047,1.0170190334320068
3,-2,0,4,2,1,1,1,-0.7108468549141949,1.8194096723603428,0.3057345545767238,227.1383514404297,674.2520751953125,148.18624877929688,87.2218246459961,175.8873291015625,103.52902221679688,1.037571668624878
-1,1,-1,-4,-1,-1,-1,-2,-0.7108468549141949,1.8194096723603428,0.3057345545767238,227.1383514404297,674.2520751953125,148.18624877929688,87.2218246459961,175.8873291015625,103.52902221679688,1.037571668624878
-1,-1,-2,-1,0,0,-1,-5,-0.7108468549141949,1.8194096723603428,0.3057345545767238,227.1383514404297,674.2520751953125,148.18624877929688,87.2218246459961,175.8873291015625,103.52902221679688,1.038574457168579
0,-3,-3,-1,-2,-3,-3,3,-0.7118346232187881,1.829025267595488,0.3100730947747973,227.1383514404297,674.2520751953125,148.18624877929688,87.2218246459961,175.8873291015625,103.52902221679688,1.0405797958374023
-2,-2,-6,-13,-4,-3,-3,-8,-0.7644908136338898,1.9173494579963761,0.3046771594530776,227.1383514404297,674.2520751953125,148.18624877929688,87.2218246459961,175.8873291015625,103.52902221679688,1.0616343021392822
1,3,3,9,5,0,4,10,-0.7644908136338898,1.9173494579963761,0.3046771594530776,227.1383514404297,674.2520751953125,148.18624877929688,87.2218246459961,175.8873291015625,103.52902221679688,1.0616343021392822
0,-1,6,7,1,1,1,2,-0.7644908136338898,1.9173494579963761,0.3046771594530776,227.1383514404297,674.2520751953125,148.18624877929688,87.2218246459961,175.8873291015625,103.52902221679688,1.0616343021392822
1,-2,-8,-5,-5,-2,-3,-12,-0.7819806799358825,1.930569314179986,0.3145848641934843,227.1383514404297,674.2520751953125,148.18624877929688,87.2218246459961,175.8873291015625,103.52902221679688,1.0626370906829834
3,-4,-4,-2,-1,-3,-4,4,-0.83471168861955,1.9791271739392005,0.3147403499081962,227.1383514404297,674.2520751953125,148.18624877929688,87.2218246459961,175.8873291015625,103.52902221679688,1.0756714344024658
-2,1,-1,-10,-1,-3,-4,-13,-0.83471168861955,1.9791271739392005,0.3147403499081962,227.1383514404297,674.2520751953125,148.18624877929688,87.2218246459961,175.8873291015625,103.52902221679688,1.0756714344024658
-2,3,4,0,-1,2,0,4,-0.83471168861955,1.9791271739392005,0.3147403499081962,227.1383514404297,674.2520751953125,148.18624877929688,87.2218246459961,175.8873291015625,103.52902221679688,1.0756714344024658
-2,1,0,3,2,0,3,18,-0.83471168861955,1.9791271739392005,0.3147403499081962,227.1383514404297,674.2520751953125,148.18624877929688,87.2218246459961,175.8873291015625,103.52902221679688,1.0756714344024658
-1,-1,1,1,-1,-1,-1,-6,-0.9524432522555201,2.1220937294083915,0.29984999702103265,227.1383514404297,674.2520751953125,148.18624877929688,87.2218246459961,175.8873291015625,103.52902221679688,1.105731725692749
-1,-1,3,5,0,0,-3,-15,-0.9524432522555201,2.1220937294083915,0.29984999702103265,227.1383514404297,674.2520751953125,148.18624877929688,87.2218246459961,175.8873291015625,103.52902221679688,1.1069738864898682
1,-4,-4,-1,-1,-1,-3,6,-0.9524432522555201,2.1220937294083915,0.29984999702103265,227.1383514404297,674.2520751953125,148.18624877929688,87.2218246459961,175.8873291015625,103.52902221679688,1.1069738864898682
2,-2,0,-1,-2,-1,0,-8,-0.9656590880788795,2.152653620616259,0.263611863489443,227.1383514404297,674.2520751953125,148.18624877929688,87.2218246459961,175.8873291015625,103.52902221679688,1.1069738864898682
-2,0,-2,-4,0,2,4,10,-1.0271780701258575,2.1829163496767516,0.30521197338971673,227.1383514404297,674.2520751953125,148.18624877929688,87.2218246459961,175.8873291015625,103.52902221679688,1.1205549240112305
-2,1,1,6,2,0,-1,5,-1.0271780701258575,2.1829163496767516,0.30521197338971673,227.1383514404297,674.2520751953125,148.18624877929688,87.2218246459961,175.8873291015625,103.52902221679688,1.1205549240112305
2,-4,0,-1,1,-3,0,-9,-1.0271780701258575,2.1829163496767516,0.30521197338971673,227.1383514404297,674.2520751953125,148.18624877929688,87.2218246459961,175.8873291015625,103.52902221679688,1.121730089187622
0,2,2,1,2,0,-3,8,-1.0271780701258575,2.1829163496767516,0.30521197338971673,227.1383514404297,674.2520751953125,148.18624877929688,87.2218246459961,175.8873291015625,103.52902221679688,1.121730089187622
0,0,-5,5,0,0,1,-6,-1.1132808544979267,2.2835432701534555,0.30659967038180097,227.13821411132812,674.2515869140625,148.1840362548828,87.22257995605469,175.88755798339844,103.52977752685547,1.1346147060394287
1,0,3,-6,-4,-1,2,-1,-1.1132808544979267,2.2835432701534555,0.30659967038180097,227.13821411132812,674.2515869140625,148.1840362548828,87.22257995605469,175.88755798339844,103.52977752685547,1.1359753608703613
1,1,1,0,1,-1,0,5,-1.1132808544979267,2.2835432701534555,0.30659967038180097,227.13821411132812,674.2515869140625,148.1840362548828,87.22257995605469,175.88755798339844,103.52977752685547,1.1359753608703613
1,0,6,10,0,0,-4,-24,-1.1132808544979267,2.2835432701534555,0.30659967038180097,227.13821411132812,674.2515869140625,148.1840362548828,87.22257995605469,175.88755798339844,103.52977752685547,1.1359753608703613
-3,-4,-3,-4,-1,-1,-1,12,-1.35053274462334,2.5271172621516915,0.15621418528446113,227.13821411132812,674.2515869140625,148.1840362548828,87.22257995605469,175.88755798339844,103.52977752685547,1.1727259159088135
-3,0,-4,-3,-1,-1,-1,-4,-1.35053274462334,2.5271172621516915,0.15621418528446113,227.13821411132812,674.2515869140625,148.1840362548828,87.22257995605469,175.88755798339844,103.52977752685547,1.1746962070465088
0,3,2,-1,-1,1,2,1,-1.35053274462334,2.5271172621516915,0.15621418528446113,227.13821411132812,674.2515869140625,148.1840362548828,87.22257995605469,175.88755798339844,103.52977752685547,1.1746962070465088
0,-5,-6,-7,-2,-1,0,14,-1.35053274462334,2.5271172621516915,0.15621418528446113,227.13821411132812,674.2515869140625,148.1840362548828,87.22257995605469,175.88755798339844,103.52977752685547,1.1746962070465088
-3,-3,-6,-7,-3,-3,-4,-14,-1.3716403904347996,2.505118240095714,0.15941529163673462,227.13821411132812,674.2515869140625,148.1840362548828,87.22257995605469,175.88755798339844,103.52977752685547,1.1822319030761719
-4,0,5,6,4,3,1,-9,-1.3716403904347996,2.505118240095714,0.15941529163673462,227.13821411132812,674.2515869140625,148.1840362548828,87.22257995605469,175.88755798339844,103.52977752685547,1.1832380294799805
0,0,4,5,2,-1,0,3,-1.3716403904347996,2.505118240095714,0.15941529163673462,227.13821411132812,674.2515869140625,148.1840362548828,87.22257995605469,175.88755798339844,103.52977752685547,1.1847028732299805
0,-1,-3,-2,-3,-1,-1,2,-1.3716403904347996,2.505118240095714,0.15941529163673462,227.13821411132812,674.2515869140625,148.1840362548828,87.22257995605469,175.88755798339844,103.52977752685547,1.1847028732299805
4,0,0,0,-1,0,1,-7,-1.376517402794623,2.46900012185164,0.13389449807639967,227.13821411132812,674.2515869140625,148.1840362548828,87.22257995605469,175.88755798339844,103.52977752685547,1.1951305866241455
2,-3,-2,0,-2,-1,-1,5,-1.376517402794623,2.46900012185164,0.13389449807639967,227.13821411132812,674.2515869140625,148.1840362548828,87.22257995605469,175.88755798339844,103.52977752685547,1.1951305866241455
5,-1,-1,0,-2,-2,-2,-2,-1.376517402794623,2.46900012185164,0.13389449807639967,227.13821411132812,674.2515869140625,148.1840362548828,87.22257995605469,175.88755798339844,103.52977752685547,1.1951305866241455
-1,0,1,0,0,0,-4,6,-1.376517402794623,2.46900012185164,0.13389449807639967,227.13821411132812,674.2515869140625,148.1840362548828,87.22257995605469,175.88755798339844,103.52977752685547,1.1951305866241455
-1,-2,-2,-8,-4,-1,1,2,-1.3214062341478663,2.3761614704033382,0.04894225660715122,227.13821411132812,674.2515869140625,148.1840362548828,87.22257995605469,175.88755798339844,103.52977752685547,1.2199630737304688
2,-3,-10,-13,-3,-2,-1,2,-1.3214062341478663,2.3761614704033382,0.04894225660715122,227.13821411132812,674.2515869140625,148.1840362548828,87.22257995605469,175.88755798339844,103.52977752685547,1.2199630737304688
1,1,8,15,6,4,0,-6,-1.3214062341478663,2.3761614704033382,0.04894225660715122,227.13821411132812,674.2515869140625,148.1840362548828,87.22257995605469,175.88755798339844,103.52977752685547,1.2199630737304688
0,-1,-1,1,-2,-1,-1,5,-1.3214062341478663,2.3761614704033382,0.04894225660715122,227.13821411132812,674.2515869140625,148.1840362548828,87.22257995605469,175.88755798339844,103.52977752685547,1.2199630737304688
-2,-3,-1,2,0,-1,0,4,-1.2415316467878807,2.251564312434112,0.0364788525350765,227.13821411132812,674.2515869140625,148.1840362548828,87.22257995605469,175.88755798339844,103.52977752685547,1.247493028640747
0,1,1,-2,-2,-1,-4,-11,-1.2415316467878807,2.251564312434112,0.0364788525350765,227.13821411132812,674.2515869140625,148.1840362548828,87.22257995605469,175.88755798339844,103.52977752685547,1.247493028640747
0,-1,-10,-7,-3,-2,-2,1,-1.2273704411700943,2.2149776769722456,0.0016085840240477323,227.13821411132812,674.2515869140625,148.1840362548828,87.22257995605469,175.88755798339844,103.52977752685547,1.2554171085357666
1,0,-2,-5,-1,-1,-2,1,-1.2273704411700943,2.2149776769722456,0.0016085840240477323,227.13821411132812,674.2515869140625,148.1840362548828,87.22257995605469,175.88755798339844,103.52977752685547,1.2554171085357666
-1,-1,-8,-2,-2,0,3,-1,-1.2273704411700943,2.2149776769722456,0.0016085840240477323,227.13821411132812,674.2515869140625,148.1840362548828,87.22257995605469,175.88755798339844,103.52977752685547,1.257878065109253
3,0,7,-3,-2,-1,-2,-14,-1.2273704411700943,2.2149776769722456,0.0016085840240477323,227.13821411132812,674.2515869140625,148.1840362548828,87.22257995605469,175.88755798339844,103.52977752685547,1.257878065109253
1,0,2,8,5,-1,-2,6,-1.2219628298121115,2.1868014744628708,0.0013574713965226748,227.13821411132812,674.2515869140625,148.1840362548828,87.22257995605469,175.88755798339844,103.52977752685547,1.2624125480651855
-2,3,1,8,1,0,-1,2,-1.2219628298121115,2.1868014744628708,0.0013574713965226748,227.13821411132812,674.2515869140625,148.1840362548828,87.22257995605469,175.88755798339844,103.52977752685547,1.2624125480651855
3,-2,2,-1,-4,-1,2,4,-1.2049205454569607,2.159845613863609,-0.04854163013157392,227.13821411132812,674.2515869140625,148.1840362548828,87.22257995605469,175.88755798339844,103.52977752685547,1.2781529426574707
2,-5,-9,-8,-7,-4,-1,-3,-1.2049205454569607,2.159845613863609,-0.04854163013157392,227.13821411132812,674.2515869140625,148.1840362548828,87.22257995605469,175.88755798339844,103.52977752685547,1.2781529426574707
3,-5,-17,-20,-7,-4,-5,-7,-1.2049205454569607,2.159845613863609,-0.04854163013157392,227.13821411132812,674.2515869140625,148.1840362548828,87.22257995605469,175.88755798339844,103.52977752685547,1.2781529426574707
-3,3,10,10,3,-1,-2,3,-1.2049205454569607,2.159845613863609,-0.04854163013157392,227.13821411132812,674.2515869140625,148.1840362548828,87.22257995605469,175.88755798339844,103.52977752685547,1.279367208480835
-1,3,6,5,3,1,1,-1,-1.1839530395561917,2.134727416772326,-0.09995836753472598,227.13821411132812,674.2515869140625,148.1840362548828,87.22257995605469,175.88755798339844,103.52977752685547,1.301260232925415
-2,1,5,13,4,3,3,16,-1.1839530395561917,2.134727416772326,-0.09995836753472598,227.13821411132812,674.2515869140625,148.1840362548828,87.22257995605469,175.88755798339844,103.52977752685547,1.301260232925415
0,-1,1,-7,-3,0,-2,-12,-1.1839530395561917,2.134727416772326,-0.09995836753472598,227.13821411132812,674.2515869140625,148.1840362548828,87.22257995605469,175.88755798339844,103.52977752685547,1.301260232925415
-1,-2,-16,-16,-3,-2,-5,-5,-1.1839530395561917,2.134727416772326,-0.09995836753472598,227.13821411132812,674.2515869140625,148.1840362548828,87.22257995605469,175.88755798339844,103.52977752685547,1.302260398864746
0,-2,4,1,0,0,-3,-2,-1.1598061158178563,2.17763499770846,-0.10370664409657593,227.13821411132812,674.2515869140625,148.1840362548828,87.22257995605469,175.88755798339844,103.52977752685547,1.3155193328857422
2,1,9,13,4,3,2,2,-1.1598061158178563,2.17763499770846,-0.10370664409657593,227.13821411132812,674.2515869140625,148.1840362548828,87.22257995605469,175.88755798339844,103.52977752685547,1.3155193328857422
-3,-1,-5,1,-2,-1,-3,-10,-1.1459800747763695,2.1915553256724345,-0.07837827282058307,227.13821411132812,674.2515869140625,148.1840362548828,87.22257995605469,175.88755798339844,103.52977752685547,1.3224873542785645
-2,-4,-6,-6,-5,-2,-2,-7,-1.1459800747763695,2.1915553256724345,-0.07837827282058307,227.13821411132812,674.2515869140625,148.1840362548828,87.22257995605469,175.88755798339844,103.52977752685547,1.3224873542785645
2,-1,-2,-2,-1,-1,-4,-2,-1.052102856349436,2.158057441521591,-0.047866939453480195,227.13821411132812,674.2515869140625,148.1840362548828,87.22257995605469,175.88755798339844,103.52977752685547,1.3550286293029785
-3,-2,-2,-3,-1,-1,1,8,-1.052102856349436,2.158057441521591,-0.047866939453480195,227.13821411132812,674.2515869140625,148.1840362548828,87.22257995605469,175.88755798339844,103.52977752685547,1.3550286293029785
0,2,1,-2,-4,-1,0,6,-1.052102856349436,2.158057441521591,-0.047866939453480195,227.13821411132812,674.2515869140625,148.1840362548828,87.22257995605469,175.88755798339844,103.52977752685547,1.3550286293029785
0,-5,-4,-5,-2,0,-1,-3,-1.052102856349436,2.158057441521591,-0.047866939453480195,227.13821411132812,674.2515869140625,148.1840362548828,87.22257995605469,175.88755798339844,103.52977752685547,1.3550286293029785
-2,1,4,5,2,1,0,-8,-1.021888637042324,2.089829245275977,-0.07575292155437896,227.13821411132812,674.2515869140625,148.1840362548828,87.22257995605469,175.88755798339844,103.52977752685547,1.3614330291748047
-3,-3,-1,1,-2,-1,1,0,-1.021888637042324,2.089829245275977,-0.07575292155437896,227.13821411132812,674.2515869140625,148.1840362548828,87.22257995605469,175.88755798339844,103.52977752685547,1.3626708984375
-4,-1,1,-1,-1,-2,0,5,-1.021888637042324,2.089829245275977,-0.07575292155437896,227.13821411132812,674.2515869140625,148.1840362548828,87.22257995605469,175.88755798339844,103.52977752685547,1.3626708984375
-3,2,-5,-2,-1,0,-1,4,-1.0255636381498818,2.076960642039112,-0.08002446666026333,227.13821411132812,674.2515869140625,148.1840362548828,87.22257995605469,175.88755798339844,103.52977752685547,1.3626708984375
-3,2,5,0,1,-1,-1,-1,-1.0160060188407332,2.051609464394738,-0.11585558251263667,227.13961791992188,674.2511596679688,148.1840362548828,87.22245788574219,175.88755798339844,103.52977752685547,1.3828866481781006
-2,-2,-10,-5,-2,-2,-1,-2,-1.0160060188407332,2.051609464394738,-0.11585558251263667,227.13961791992188,674.2511596679688,148.1840362548828,87.22245788574219,175.88755798339844,103.52977752685547,1.3828866481781006
1,2,8,2,0,0,-2,-3,-1.0160060188407332,2.051609464394738,-0.11585558251263667,227.13961791992188,674.2511596679688,148.1840362548828,87.22245788574219,175.88755798339844,103.52977752685547,1.384892225265503
-2,-3,-3,-1,-2,-2,-4,1,-1.0160060188407332,2.051609464394738,-0.11585558251263667,227.13961791992188,674.2511596679688,148.1840362548828,87.22245788574219,175.88755798339844,103.52977752685547,1.384892225265503
-3,-4,-7,-4,0,0,2,0,-1.0498829707821113,2.016206277033043,-0.15349615074419137,227.13961791992188,674.2511596679688,148.1840362548828,87.22245788574219,175.88755798339844,103.52977752685547,1.405242919921875
4,5,3,-1,0,0,-2,3,-1.0498829707821113,2.016206277033043,-0.15349615074419137,227.13961791992188,674.2511596679688,148.1840362548828,87.22245788574219,175.88755798339844,103.52977752685547,1.406245231628418
2,-2,0,2,-1,0,-2,1,-1.0498829707821113,2.016206277033043,-0.15349615074419137,227.13961791992188,674.2511596679688,148.1840362548828,87.22245788574219,175.88755798339844,103.52977752685547,1.407247543334961
2,0,5,6,0,0,-1,2,-1.069782610986927,2.016448990812541,-0.20956227672717845,227.13961791992188,674.2511596679688,148.1840362548828,87.22245788574219,175.88755798339844,103.52977752685547,1.407247543334961
4,1,-1,-2,-2,-1,0,0,-1.0772270493760798,2.031407834666909,-0.2376619977686889,227.13961791992188,674.2511596679688,148.1840362548828,87.22245788574219,175.88755798339844,103.52977752685547,1.4192748069763184
2,-7,-8,-8,-4,0,-1,-2,-1.0772270493760798,2.031407834666909,-0.2376619977686889,227.13961791992188,674.2511596679688,148.1840362548828,87.22245788574219,175.88755798339844,103.52977752685547,1.4202780723571777
-1,-1,-10,-17,-4,-2,-1,-1,-1.1022249812058875,2.0117988409599157,-0.24021202424529065,227.13961791992188,674.2511596679688,148.1840362548828,87.22245788574219,175.88755798339844,103.52977752685547,1.4267945289611816
3,2,13,20,7,2,0,8,-1.1022249812058875,2.0117988409599157,-0.24021202424529065,227.13961791992188,674.2511596679688,148.1840362548828,87.22245788574219,175.88755798339844,103.52977752685547,1.4267945289611816
-1,-1,-4,-2,-2,-1,0,2,-1.1304848833292862,2.038760138464182,-0.23157175093581675,227.13961791992188,674.2511596679688,148.1840362548828,87.22245788574219,175.88755798339844,103.52977752685547,1.4428367614746094
-2,-3,-9,-9,-4,-2,-3,-11,-1.1304848833292862,2.038760138464182,-0.23157175093581675,227.13961791992188,674.2511596679688,148.1840362548828,87.22245788574219,175.88755798339844,103.52977752685547,1.4428367614746094
-1,-5,-14,-8,-1,-2,0,4,-1.1646285923355904,2.0509316485549443,-0.26133720094758944,227.13961791992188,674.2511596679688,148.1840362548828,87.22245788574219,175.88755798339844,103.52977752685547,1.4679019451141357
-3,7,23,13,0,-2,0,-1,-1.1646285923355904,2.0509316485549443,-0.26133720094758944,227.13961791992188,674.2511596679688,148.1840362548828,87.22245788574219,175.88755798339844,103.52977752685547,1.4679019451141357
1,-2,-5,0,1,-2,1,-6,-1.1646285923355904,2.0509316485549443,-0.26133720094758944,227.13961791992188,674.2511596679688,148.1840362548828,87.22245788574219,175.88755798339844,103.52977752685547,1.4679019451141357
-4,-1,-1,4,3,1,1,1,-1.1646285923355904,2.0509316485549443,-0.26133720094758944,227.13961791992188,674.2511596679688,148.1840362548828,87.22245788574219,175.88755798339844,103.52977752685547,1.4679019451141357
0,2,2,-4,-2,-1,-2,-7,-1.154664833036076,2.0500699871133623,-0.3172673033449689,227.13961791992188,674.2511596679688,148.1840362548828,87.22245788574219,175.88755798339844,103.52977752685547,1.4809362888336182
-1,-8,-14,-8,-3,-2,-6,3,-1.154664833036076,2.0500699871133623,-0.3172673033449689,227.13961791992188,674.2511596679688,148.1840362548828,87.22245788574219,175.88755798339844,103.52977752685547,1.4819393157958984
-1,0,4,0,-2,1,1,6,-1.1589995111086973,2.013473805213161,-0.32320503442124027,227.13961791992188,674.2511596679688,148.1840362548828,87.22245788574219,175.88755798339844,103.52977752685547,1.4949731826782227
0,0,-2,-8,-2,-2,-2,-9,-1.1589995111086973,2.013473805213161,-0.32320503442124027,227.13961791992188,674.2511596679688,148.1840362548828,87.22245788574219,175.88755798339844,103.52977752685547,1.4949731826782227
0,1,5,5,3,0,-1,-4,-1.1589995111086973,2.013473805213161,-0.32320503442124027,227.13961791992188,674.2511596679688,148.1840362548828,87.22245788574219,175.88755798339844,103.52977752685547,1.4969782829284668
-4,0,-4,1,2,1,-2,-2,-1.1589995111086973,2.013473805213161,-0.32320503442124027,227.13961791992188,674.2511596679688,148.1840362548828,87.22245788574219,175.88755798339844,103.52977752685547,1.497981309890747
0,0,6,8,1,-2,-1,-5,-1.1451841937779654,2.014173863398393,-0.2982446117768127,227.13961791992188,674.2511596679688,148.1840362548828,87.22245788574219,175.88755798339844,103.52977752685547,1.5029938220977783
-2,3,5,-4,-4,-1,4,9,-1.1451841937779654,2.014173863398393,-0.2982446117768127,227.13961791992188,674.2511596679688,148.1840362548828,87.22245788574219,175.88755798339844,103.52977752685547,1.5039970874786377
-1,-8,-10,-4,-5,0,0,-8,-1.1451841937779654,2.014173863398393,-0.2982446117768127,227.13961791992188,674.2511596679688,148.1840362548828,87.22245788574219,175.88755798339844,103.52977752685547,1.5060017108917236
-3,2,-5,-11,-5,-4,-9,14,-1.1451841937779654,2.014173863398393,-0.2982446117768127,227.13961791992188,674.2511596679688,148.1840362548828,87.22245788574219,175.88755798339844,103.52977752685547,1.5060017108917236
-2,-1,-4,-7,-2,-1,-4,-15,-1.1144450382903355,1.974779197950976,-0.2789250526380763,227.14100646972656,674.2506713867188,148.1840362548828,87.22234344482422,175.88755798339844,103.52977752685547,1.5255465507507324
1,1,4,14,6,2,0,6,-1.1144450382903355,1.974779197950976,-0.2789250526380763,227.14100646972656,674.2506713867188,148.1840362548828,87.22234344482422,175.88755798339844,103.52977752685547,1.526550054550171
-1,0,1,-2,1,1,1,4,-1.1144450382903355,1.974779197950976,-0.2789250526380763,227.14100646972656,674.2506713867188,148.1840362548828,87.22234344482422,175.88755798339844,103.52977752685547,1.527552604675293
-2,-1,-1,-1,-2,0,4,-1,-1.1144450382903355,1.974779197950976,-0.2789250526380763,227.14100646972656,674.2506713867188,148.1840362548828,87.22234344482422,175.88755798339844,103.52977752685547,1.527552604675293
1,-6,-11,-11,-4,-2,-2,-5,-1.1793540814502792,2.051278288305379,-0.23105275182633941,227.14100646972656,674.2506713867188,148.1840362548828,87.22234344482422,175.88755798339844,103.52977752685547,1.547605037689209
-1,1,2,-3,-2,-3,-3,4,-1.1793540814502792,2.051278288305379,-0.23105275182633941,227.14100646972656,674.2506713867188,148.1840362548828,87.22234344482422,175.88755798339844,103.52977752685547,1.548607349395752
3,2,4,5,1,-1,0,6,-1.1793540814502792,2.051278288305379,-0.23105275182633941,227.14100646972656,674.2506713867188,148.1840362548828,87.22234344482422,175.88755798339844,103.52977752685547,1.5496101379394531
-1,-3,-3,-8,-3,0,0,1,-1.1793540814502792,2.051278288305379,-0.23105275182633941,227.14100646972656,674.2506713867188,148.1840362548828,87.22234344482422,175.88755798339844,103.52977752685547,1.5506126880645752
-2,1,-12,-3,1,0,-3,-11,-1.2335856381802282,2.1042022152124322,-0.24402489337682287,227.14239501953125,674.2501831054688,148.1840362548828,87.22222137451172,175.88755798339844,103.52977752685547,1.5626440048217773
0,0,7,6,2,0,0,-2,-1.2776766683741707,2.130238622946684,-0.24752014483167667,227.14239501953125,674.2501831054688,148.1840362548828,87.22222137451172,175.88755798339844,103.52977752685547,1.5646495819091797
-4,-4,2,4,0,-2,1,4,-1.3691626072491496,2.2176434922348593,-0.2876977500226358,227.14239501953125,674.2501831054688,148.1840362548828,87.22222137451172,175.88755798339844,103.52977752685547,1.5776832103729248
0,0,0,6,-1,1,1,9,-1.3691626072491496,2.2176434922348593,-0.2876977500226358,227.14239501953125,674.2501831054688,148.1840362548828,87.22222137451172,175.88755798339844,103.52977752685547,1.5776832103729248
-1,-1,9,1,-2,-1,1,-4,-1.4401153539761145,2.289859794991296,-0.27516122111349195,227.14239501953125,674.2501831054688,148.1840362548828,87.22222137451172,175.88755798339844,103.52977752685547,1.5857045650482178
-3,9,-5,-6,0,0,-3,-9,-1.4401153539761145,2.289859794991296,-0.27516122111349195,227.14239501953125,674.2501831054688,148.1840362548828,87.22222137451172,175.88755798339844,103.52977752685547,1.586707592010498
-3,-15,-9,13,-1,-2,-2,-3,-1.4401153539761145,2.289859794991296,-0.27516122111349195,227.14239501953125,674.2501831054688,148.1840362548828,87.22222137451172,175.88755798339844,103.52977752685547,1.5877101421356201
-1,1,-1,-7,-1,1,0,-1,-1.4401153539761145,2.289859794991296,-0.27516122111349195,227.14239501953125,674.2501831054688,148.1840362548828,87.22222137451172,175.88755798339844,103.52977752685547,1.5877101421356201
-10,-4,-8,-2,-2,-1,2,2,-1.5738469064204108,2.4019949957522213,-0.30368421072092155,227.14239501953125,674.2501831054688,148.1840362548828,87.22222137451172,175.88755798339844,103.52977752685547,1.601058006286621
-1,-4,-8,-6,-2,0,-2,-2,-1.5738469064204108,2.4019949957522213,-0.30368421072092155,227.14239501953125,674.2501831054688,148.1840362548828,87.22222137451172,175.88755798339844,103.52977752685547,1.6020605564117432
2,3,6,1,0,1,-1,-7,-1.6130089840808726,2.4501416126313145,-0.3460586862741806,227.14239501953125,674.2501831054688,148.1840362548828,87.22222137451172,175.88755798339844,103.52977752685547,1.6080760955810547
2,1,0,-1,-3,-2,-4,-5,-1.6130089840808726,2.4501416126313145,-0.3460586862741806,227.14239501953125,674.2501831054688,148.1840362548828,87.22222137451172,175.88755798339844,103.52977752685547,1.6090786457061768
2,0,5,3,0,0,2,6,-1.7195167894553878,2.536323869416399,-0.3571130890049463,227.14239501953125,674.2501831054688,148.1840362548828,87.22222137451172,175.88755798339844,103.52977752685547,1.6308414936065674
3,-3,-5,-11,0,11,6,10,-1.7195167894553878,2.536323869416399,-0.3571130890049463,227.14239501953125,674.2501831054688,148.1840362548828,87.22222137451172,175.88755798339844,103.52977752685547,1.6308414936065674
3,9,7,10,2,-14,-4,-20,-1.7195167894553878,2.536323869416399,-0.3571130890049463,227.14239501953125,674.2501831054688,148.1840362548828,87.22222137451172,175.88755798339844,103.52977752685547,1.6329474449157715
-2,-11,-2,1,-1,2,-2,1,-1.7195167894553878,2.536323869416399,-0.3571130890049463,227.14239501953125,674.2501831054688,148.1840362548828,87.22222137451172,175.88755798339844,103.52977752685547,1.6329474449157715
-1,3,3,-6,-3,-4,-3,3,-1.8137256142084865,2.635572397162614,-0.31413870072717387,227.14239501953125,674.2501831054688,148.1840362548828,87.22222137451172,175.88755798339844,103.52977752685547,1.6455092430114746
-3,-4,1,7,3,13,9,7,-1.8137256142084865,2.635572397162614,-0.31413870072717387,227.14239501953125,674.2501831054688,148.1840362548828,87.22222137451172,175.88755798339844,103.52977752685547,1.6455092430114746
-1,-1,-7,-9,0,-9,-2,4,-1.946791205422649,2.772587673131292,-0.2943829132447003,227.14239501953125,674.2501831054688,148.1840362548828,87.22222137451172,175.88755798339844,103.52977752685547,1.6609861850738525
-1,0,-3,2,-1,-7,-6,-13,-1.946791205422649,2.772587673131292,-0.2943829132447003,227.14239501953125,674.2501831054688,148.1840362548828,87.22222137451172,175.88755798339844,103.52977752685547,1.6609861850738525
-1,0,11,1,-3,2,1,5,-1.946791205422649,2.772587673131292,-0.2943829132447003,227.14239501953125,674.2501831054688,148.1840362548828,87.22222137451172,175.88755798339844,103.52977752685547,1.6609861850738525
1,-11,-23,-7,-4,-12,-6,-15,-1.946791205422649,2.772587673131292,-0.2943829132447003,227.14239501953125,674.2501831054688,148.1840362548828,87.22222137451172,175.88755798339844,103.52977752685547,1.6619889736175537
2,9,19,-4,0,22,5,15,-2.0332029434284196,2.801856643787274,-0.32517463778732897,227.1424102783203,674.2501831054688,148.1855010986328,87.22184753417969,175.88743591308594,103.5293960571289,1.6675190925598145
-1,-7,-18,-6,-1,-7,0,2,-2.0332029434284196,2.801856643787274,-0.32517463778732897,227.1424102783203,674.2501831054688,148.1855010986328,87.22184753417969,175.88743591308594,103.5293960571289,1.6675190925598145
-3,0,-8,1,1,-4,-2,1,-2.272289194357186,2.9540861044265267,-0.29949645654777,227.143798828125,674.249755859375,148.1855010986328,87.22172546386719,175.88743591308594,103.5293960571289,1.6829676628112793
-3,2,20,6,-1,1,2,-2,-2.272289194357186,2.9540861044265267,-0.29949645654777,227.143798828125,674.249755859375,148.1855010986328,87.22172546386719,175.88743591308594,103.5293960571289,1.6829676628112793
-2,-8,-8,2,-3,0,-6,-10,-2.272289194357186,2.9540861044265267,-0.29949645654777,227.143798828125,674.249755859375,148.1855010986328,87.22172546386719,175.88743591308594,103.5293960571289,1.6842021942138672
3,0,1,0,-1,-3,-6,-6,-2.272289194357186,2.9540861044265267,-0.29949645654777,227.143798828125,674.249755859375,148.1855010986328,87.22172546386719,175.88743591308594,103.5293960571289,1.6842021942138672
0,3,7,1,-1,4,0,-6,-2.458000761769927,3.1024481327211677,-0.5433615087024475,227.143798828125,674.249755859375,148.1855010986328,87.22172546386719,175.88743591308594,103.5293960571289,1.71305513381958
1,3,2,-4,-1,-6,-3,2,-2.458000761769927,3.1024481327211677,-0.5433615087024475,227.143798828125,674.249755859375,148.1855010986328,87.22172546386719,175.88743591308594,103.5293960571289,1.714329481124878
4,4,2,6,2,0,1,7,-2.458000761769927,3.1024481327211677,-0.5433615087024475,227.143798828125,674.249755859375,148.1855010986328,87.22172546386719,175.88743591308594,103.5293960571289,1.714329481124878
-2,0,-2,-2,-3,-2,-3,-6,-2.458000761769927,3.1024481327211677,-0.5433615087024475,227.143798828125,674.249755859375,148.1855010986328,87.22172546386719,175.88743591308594,103.5293960571289,1.7153351306915283
-1,-5,-3,0,-1,1,1,4,-2.4380965603945386,3.08028655987899,-0.5335010378304603,227.143798828125,674.249755859375,148.1840362548828,87.22210693359375,175.88755798339844,103.52977752685547,1.718841552734375
-3,0,3,-3,-4,-5,-2,-7,-2.4380965603945386,3.08028655987899,-0.5335010378304603,227.143798828125,674.249755859375,148.1840362548828,87.22210693359375,175.88755798339844,103.52977752685547,1.7202706336975098
1,-2,-13,-14,-6,-5,-2,9,-2.472727761227811,3.038078649688337,-0.5731097302499696,227.143798828125,674.249755859375,148.1840362548828,87.22210693359375,175.88755798339844,103.52977752685547,1.728774070739746
-6,5,16,16,4,6,2,0,-2.472727761227811,3.038078649688337,-0.5731097302499696,227.143798828125,674.249755859375,148.1840362548828,87.22210693359375,175.88755798339844,103.52977752685547,1.728774070739746
-2,4,8,0,-1,-2,-4,-10,-2.39744572616456,2.9230696187748757,-0.5896002791040587,227.143798828125,674.249755859375,148.1855010986328,87.22172546386719,175.88743591308594,103.5293960571289,1.744149923324585
-1,-9,5,4,1,0,2,11,-2.39744572616456,2.9230696187748757,-0.5896002791040587,227.143798828125,674.249755859375,148.1855010986328,87.22172546386719,175.88743591308594,103.5293960571289,1.744149923324585
-1,-4,-14,-9,-2,-4,-5,-16,-2.39744572616456,2.9230696187748757,-0.5896002791040587,227.143798828125,674.249755859375,148.1855010986328,87.22172546386719,175.88743591308594,103.5293960571289,1.7446537017822266
0,-1,-12,-15,-5,4,-1,15,-2.39744572616456,2.9230696187748757,-0.5896002791040587,227.143798828125,674.249755859375,148.1855010986328,87.22172546386719,175.88743591308594,103.5293960571289,1.7446537017822266
-1,-3,2,17,3,-2,0,3,-2.1503266884961376,2.6498975080171214,-0.6743482884021292,227.143798828125,674.249755859375,148.1855010986328,87.22172546386719,175.88743591308594,103.5293960571289,1.7730941772460938
1,2,1,-5,-2,-4,1,0,-2.1503266884961376,2.6498975080171214,-0.6743482884021292,227.143798828125,674.249755859375,148.1855010986328,87.22172546386719,175.88743591308594,103.5293960571289,1.7730941772460938
0,0,5,10,2,6,1,0,-2.1503266884961376,2.6498975080171214,-0.6743482884021292,227.143798828125,674.249755859375,148.1855010986328,87.22172546386719,175.88743591308594,103.5293960571289,1.7744879722595215
1,1,4,-5,-3,2,-1,-12,-2.1503266884961376,2.6498975080171214,-0.6743482884021292,227.143798828125,674.249755859375,148.1855010986328,87.22172546386719,175.88743591308594,103.5293960571289,1.7744879722595215
0,-3,-14,1,-1,-5,-2,11,-2.126175563201334,2.617332279061974,-0.6620854660885875,227.143798828125,674.249755859375,148.1855010986328,87.22172546386719,175.88743591308594,103.5293960571289,1.778810977935791
-5,1,5,-1,-2,1,1,-4,-2.126175563201334,2.617332279061974,-0.6620854660885875,227.143798828125,674.249755859375,148.1855010986328,87.22172546386719,175.88743591308594,103.5293960571289,1.779895544052124
-3,-3,-6,-8,-3,-2,-2,3,-2.0221642626346346,2.4868917022672496,-0.7490913007114848,227.143798828125,674.249755859375,148.1840362548828,87.22210693359375,175.88755798339844,103.52977752685547,1.7947230339050293
-3,-6,-14,-8,-3,-4,-3,-4,-2.0221642626346346,2.4868917022672496,-0.7490913007114848,227.143798828125,674.249755859375,148.1840362548828,87.22210693359375,175.88755798339844,103.52977752685547,1.7947230339050293
1,3,9,0,4,3,1,4,-1.986158366533255,2.480334518506691,-0.683072866891324,227.143798828125,674.249755859375,148.1840362548828,87.22210693359375,175.88755798339844,103.52977752685547,1.80289626121521
0,3,13,10,-1,-5,-5,-2,-1.986158366533255,2.480334518506691,-0.683072866891324,227.143798828125,674.249755859375,148.1840362548828,87.22210693359375,175.88755798339844,103.52977752685547,1.80289626121521
0,-5,3,0,0,-1,-1,1,-1.986158366533255,2.480334518506691,-0.683072866891324,227.143798828125,674.249755859375,148.1840362548828,87.22210693359375,175.88755798339844,103.52977752685547,1.804399013519287
1,-2,-5,-3,-1,-1,0,10,-1.986158366533255,2.480334518506691,-0.683072866891324,227.143798828125,674.249755859375,148.1840362548828,87.22210693359375,175.88755798339844,103.52977752685547,1.804399013519287
-2,-2,1,7,2,3,1,-12,-1.9388036459104907,2.4389512850907655,-0.6536110661335911,227.143798828125,674.249755859375,148.1855010986328,87.22172546386719,175.88743591308594,103.5293960571289,1.8258566856384277
4,2,-1,-4,-3,-6,-6,-1,-1.9388036459104907,2.4389512850907655,-0.6536110661335911,227.143798828125,674.249755859375,148.1855010986328,87.22172546386719,175.88743591308594,103.5293960571289,1.8258566856384277
0,-5,-11,-6,-4,-1,-3,8,-1.9388036459104907,2.4389512850907655,-0.6536110661335911,227.143798828125,674.249755859375,148.1855010986328,87.22172546386719,175.88743591308594,103.5293960571289,1.8269374370574951
-1,5,18,9,1,3,0,-10,-1.9388036459104907,2.4389512850907655,-0.6536110661335911,227.143798828125,674.249755859375,148.1855010986328,87.22172546386719,175.88743591308594,103.5293960571289,1.8269374370574951
-6,-4,-15,-16,-4,-3,4,14,-1.8887722131797495,2.3833694714963594,-0.7045761119462063,227.1451873779297,674.249267578125,148.1855010986328,87.22161102294922,175.88743591308594,103.5293960571289,1.8477680683135986
-4,-2,-2,10,6,1,2,-9,-1.8887722131797495,2.3833694714963594,-0.7045761119462063,227.1451873779297,674.249267578125,148.1855010986328,87.22161102294922,175.88743591308594,103.5293960571289,1.8487882614135742
-3,5,9,0,-2,-2,-5,1,-1.8887722131797495,2.3833694714963594,-0.7045761119462063,227.1451873779297,674.249267578125,148.1855010986328,87.22161102294922,175.88743591308594,103.5293960571289,1.8502929210662842
-2,-4,-5,-4,1,-1,1,5,-1.8887722131797495,2.3833694714963594,-0.7045761119462063,227.1451873779297,674.249267578125,148.1855010986328,87.22161102294922,175.88743591308594,103.5293960571289,1.8502929210662842
-1,-3,-12,-5,-2,-2,-2,-15,-1.796467208703282,2.3009053604824126,-0.7148828238020121,227.1451873779297,674.249267578125,148.1855010986328,87.22161102294922,175.88743591308594,103.5293960571289,1.8626110553741455
-4,-3,10,5,3,3,0,-1,-1.796467208703282,2.3009053604824126,-0.7148828238020121,227.1451873779297,674.249267578125,148.1855010986328,87.22161102294922,175.88743591308594,103.5293960571289,1.8626110553741455
-2,3,-3,-3,1,4,4,14,-1.796467208703282,2.3009053604824126,-0.7148828238020121,227.1451873779297,674.249267578125,148.1855010986328,87.22161102294922,175.88743591308594,103.5293960571289,1.8640940189361572
-1,1,-3,1,-2,-10,-3,-4,-1.796467208703282,2.3009053604824126,-0.7148828238020121,227.1451873779297,674.249267578125,148.1855010986328,87.22161102294922,175.88743591308594,103.5293960571289,1.8640940189361572
2,2,7,-9,-3,3,-6,-11,-1.634622844634063,2.1470505434795157,-0.7760325573503728,227.1451873779297,674.249267578125,148.1855010986328,87.22161102294922,175.88743591308594,103.5293960571289,1.8852884769439697
5,-13,-26,-11,-3,0,1,0,-1.634622844634063,2.1470505434795157,-0.7760325573503728,227.1451873779297,674.249267578125,148.1855010986328,87.22161102294922,175.88743591308594,103.5293960571289,1.8852884769439697
2,7,14,8,3,1,0,-2,-1.634622844634063,2.1470505434795157,-0.7760325573503728,227.1451873779297,674.249267578125,148.1855010986328,87.22161102294922,175.88743591308594,103.5293960571289,1.8874523639678955
-2,4,10,1,0,-1,-2,5,-1.634622844634063,2.1470505434795157,-0.7760325573503728,227.1451873779297,674.249267578125,148.1840362548828,87.22198486328125,175.88755798339844,103.52977752685547,1.888458013534546
1,-3,3,10,3,0,6,8,-1.586515997926417,2.0920215597299108,-0.7518742006910305,227.14659118652344,674.248779296875,148.1855010986328,87.22148895263672,175.88743591308594,103.5293960571289,1.8995587825775146
-4,-1,-11,-8,-3,-3,-1,-7,-1.586515997926417,2.0920215597299108,-0.7518742006910305,227.14659118652344,674.248779296875,148.1855010986328,87.22148895263672,175.88743591308594,103.5293960571289,1.8995587825775146
-1,0,1,-4,-4,-3,-3,-7,-1.535824119428744,2.0903245405138398,-0.7285484714386042,227.14659118652344,674.248779296875,148.1855010986328,87.22148895263672,175.88743591308594,103.5293960571289,1.915109395980835
2,-4,-11,-4,0,1,2,-4,-1.535824119428744,2.0903245405138398,-0.7285484714386042,227.14659118652344,674.248779296875,148.1855010986328,87.22148895263672,175.88743591308594,103.5293960571289,1.915109395980835
-1,1,4,0,-2,-2,0,8,-1.5252324779953181,2.084241381502889,-0.7116629188212563,227.14659118652344,674.248779296875,148.1855010986328,87.22148895263672,175.88743591308594,103.5293960571289,1.9226768016815186
-5,3,9,2,-2,-2,-3,-22,-1.5252324779953181,2.084241381502889,-0.7116629188212563,227.14659118652344,674.248779296875,148.1855010986328,87.22148895263672,175.88743591308594,103.5293960571289,1.9246821403503418
-2,-5,-9,-2,-2,-1,-1,23,-1.5252324779953181,2.084241381502889,-0.7116629188212563,227.14659118652344,674.248779296875,148.1855010986328,87.22148895263672,175.88743591308594,103.5293960571289,1.9246821403503418
-3,-1,-1,-1,1,1,0,-6,-1.5252324779953181,2.084241381502889,-0.7116629188212563,227.14659118652344,674.248779296875,148.1855010986328,87.22148895263672,175.88743591308594,103.5293960571289,1.9258782863616943
4,-3,-2,-3,-1,0,1,5,-1.536302583128819,2.106508513676592,-0.7248493227318027,227.14659118652344,674.248779296875,148.1855010986328,87.22148895263672,175.88743591308594,103.5293960571289,1.9463608264923096
3,3,2,5,2,1,3,8,-1.536302583128819,2.106508513676592,-0.7248493227318027,227.14659118652344,674.248779296875,148.1855010986328,87.22148895263672,175.88743591308594,103.5293960571289,1.9463608264923096
-4,-2,1,-2,-2,-2,-4,-9,-1.536302583128819,2.106508513676592,-0.7248493227318027,227.14659118652344,674.248779296875,148.1855010986328,87.22148895263672,175.88743591308594,103.5293960571289,1.9473659992218018
-2,6,10,2,-1,1,1,11,-1.536302583128819,2.106508513676592,-0.7248493227318027,227.14659118652344,674.248779296875,148.1855010986328,87.22148895263672,175.88743591308594,103.5293960571289,1.9473659992218018
0,3,5,-4,-3,0,-1,-12,-1.5610843716577876,2.1523725291834443,-0.7514586704857912,227.14659118652344,674.248779296875,148.1855010986328,87.22148895263672,175.88743591308594,103.5293960571289,1.9608030319213867
-4,-13,-23,-8,-2,-3,0,0,-1.5610843716577876,2.1523725291834443,-0.7514586704857912,227.14659118652344,674.248779296875,148.1855010986328,87.22148895263672,175.88743591308594,103.5293960571289,1.9608030319213867
2,1,7,2,1,-2,0,1,-1.5641857826007424,2.153014010771597,-0.7635857280652283,227.14659118652344,674.248779296875,148.1855010986328,87.22148895263672,175.88743591308594,103.5293960571289,1.9687275886535645
-2,-2,-10,-6,-3,-2,-2,-11,-1.5641857826007424,2.153014010771597,-0.7635857280652283,227.14659118652344,674.248779296875,148.1855010986328,87.22148895263672,175.88743591308594,103.5293960571289,1.9687275886535645
1,2,9,3,-1,-2,-3,-7,-1.5691699508972763,2.148088989364933,-0.7823634338542278,227.14797973632812,674.2483520507812,148.1855010986328,87.22137451171875,175.88743591308594,103.5293960571289,1.9828178882598877
-2,3,-4,-2,-2,-1,2,11,-1.5531301661617811,2.139768047943317,-0.8008743780088899,227.14797973632812,674.2483520507812,148.1855010986328,87.22137451171875,175.88743591308594,103.5293960571289,1.9838204383850098
4,10,12,-7,-1,2,0,3,-1.5531301661617811,2.139768047943317,-0.8008743780088899,227.14797973632812,674.2483520507812,148.1855010986328,87.22137451171875,175.88743591308594,103.5293960571289,1.9848229885101318
4,-16,-22,6,1,-4,2,8,-1.5531301661617811,2.139768047943317,-0.8008743780088899,227.14797973632812,674.2483520507812,148.1855010986328,87.22137451171875,175.88743591308594,103.5293960571289,1.9848229885101318
-2,3,3,-1,-1,7,-2,-13,-1.4803864786593948,2.0953619336434652,-0.8011360406612336,227.14797973632812,674.2483520507812,148.1855010986328,87.22137451171875,175.88743591308594,103.5293960571289,2.0058774948120117
3,-12,-19,-3,-3,-5,-3,-5,-1.4803864786593948,2.0953619336434652,-0.8011360406612336,227.14797973632812,674.2483520507812,148.1855010986328,87.22137451171875,175.88743591308594,103.5293960571289,2.0058774948120117
-2,5,12,-4,-5,-1,-1,6,-1.4803864786593948,2.0953619336434652,-0.8011360406612336,227.14797973632812,674.2483520507812,148.1855010986328,87.22137451171875,175.88743591308594,103.5293960571289,2.006880283355713
-1,0,-3,3,3,3,1,-8,-1.4803864786593948,2.0953619336434652,-0.8011360406612336,227.14797973632812,674.2483520507812,148.1855010986328,87.22137451171875,175.88743591308594,103.5293960571289,2.006880283355713
2,-5,-1,-3,-1,-3,-1,-1,-1.448104725908298,2.0228200178601488,-0.778303324926935,227.14797973632812,674.2483520507812,148.1855010986328,87.22137451171875,175.88743591308594,103.5293960571289,2.0193450450897217
0,-3,0,3,2,3,4,9,-1.448104725908298,2.0228200178601488,-0.778303324926935,227.14797973632812,674.2483520507812,148.1855010986328,87.22137451171875,175.88743591308594,103.5293960571289,2.0193450450897217
0,-2,-5,3,0,-1,-2,-5,-1.3896854796156646,1.9685819370057214,-0.7644757907711556,227.14797973632812,674.2483520507812,148.1855010986328,87.22137451171875,175.88743591308594,103.5293960571289,2.0275356769561768
-3,0,0,-4,-3,-1,-1,7,-1.3896854796156646,1.9685819370057214,-0.7644757907711556,227.14797973632812,674.2483520507812,148.1855010986328,87.22137451171875,175.88743591308594,103.5293960571289,2.0275356769561768
1,14,18,-3,0,-5,-2,-7,-1.3179295834518743,1.8806743425508583,-0.7969820034218262,227.14797973632812,674.2483520507812,148.1855010986328,87.22137451171875,175.88743591308594,103.5293960571289,2.0441384315490723
1,-12,-26,-5,2,3,3,-3,-1.3179295834518743,1.8806743425508583,-0.7969820034218262,227.14797973632812,674.2483520507812,148.1855010986328,87.22137451171875,175.88743591308594,103.5293960571289,2.0441384315490723
3,1,9,11,2,2,2,10,-1.2601529721120033,1.8575435746156461,-0.8272640092802377,227.14797973632812,674.2483520507812,148.1855010986328,87.22137451171875,175.88743591308594,103.5293960571289,2.0500564575195312
-2,-3,5,4,-1,2,0,-14,-1.2601529721120033,1.8575435746156461,-0.8272640092802377,227.14797973632812,674.2483520507812,148.1855010986328,87.22137451171875,175.88743591308594,103.5293960571289,2.0510590076446533
1,4,-6,-9,-3,-4,-9,3,-1.251112804886198,1.8658868085302511,-0.8245258890535728,227.14797973632812,674.2483520507812,148.1855010986328,87.22137451171875,175.88743591308594,103.5293960571289,2.067101001739502
2,3,3,-9,-5,-2,2,9,-1.251112804886198,1.8658868085302511,-0.8245258890535728,227.14797973632812,674.2483520507812,148.1855010986328,87.22137451171875,175.88743591308594,103.5293960571289,2.067101001739502
2,-2,-3,1,1,0,-3,-21,-1.251112804886198,1.8658868085302511,-0.8245258890535728,227.14797973632812,674.2483520507812,148.1855010986328,87.22137451171875,175.88743591308594,103.5293960571289,2.067101001739502
-1,-1,-5,-4,-3,-4,-4,11,-1.251112804886198,1.8658868085302511,-0.8245258890535728,227.14797973632812,674.2483520507812,148.1855010986328,87.22137451171875,175.88743591308594,103.5293960571289,2.067101001739502
0,-3,-7,10,-1,3,2,8,-1.23069601177674,1.8726218642413168,-0.7816841501451856,227.14797973632812,674.2483520507812,148.1855010986328,87.22137451171875,175.88743591308594,103.5293960571289,2.079132318496704
0,1,9,1,-1,0,2,4,-1.23069601177674,1.8726218642413168,-0.7816841501451856,227.14797973632812,674.2483520507812,148.1855010986328,87.22137451171875,175.88743591308594,103.5293960571289,2.0801355838775635
-2,-8,-14,-5,-4,3,0,7,-1.23069601177674,1.8726218642413168,-0.7816841501451856,227.14797973632812,674.2483520507812,148.1855010986328,87.22137451171875,175.88743591308594,103.5293960571289,2.08815598487854
-2,6,4,5,1,-4,2,0,-1.23069601177674,1.8726218642413168,-0.7816841501451856,227.14797973632812,674.2483520507812,148.1855010986328,87.22137451171875,175.88743591308594,103.5293960571289,2.08815598487854
-3,-4,3,-1,-4,-10,-8,-3,-1.1354823678353854,1.8296165553874064,-0.7467767943617889,227.14797973632812,674.2483520507812,148.1855010986328,87.22137451171875,175.88743591308594,103.5293960571289,2.1031954288482666
2,9,9,-3,2,6,-2,-7,-1.1142984931710784,1.8125633080378627,-0.723978998787607,227.14797973632812,674.2483520507812,148.1855010986328,87.22137451171875,175.88743591308594,103.5293960571289,2.1031954288482666
-4,-7,-14,-3,-2,-6,-2,-9,-1.1090934263193872,1.8072634063109894,-0.7212475109595322,227.14797973632812,674.2483520507812,148.1855010986328,87.22137451171875,175.88743591308594,103.5293960571289,2.1041982173919678
-2,-4,0,-10,-2,11,-3,-17,-1.1090934263193872,1.8072634063109894,-0.7212475109595322,227.14797973632812,674.2483520507812,148.1855010986328,87.22137451171875,175.88743591308594,103.5293960571289,2.106203079223633
-6,-11,-17,0,3,-5,6,14,-1.020640524384515,1.7469594207939496,-0.6957461831475402,227.1493682861328,674.2478637695312,148.1855010986328,87.22125244140625,175.88743591308594,103.5293960571289,2.1337690353393555
-1,7,28,6,2,12,5,-3,-1.020640524384515,1.7469594207939496,-0.6957461831475402,227.1493682861328,674.2478637695312,148.1855010986328,87.22125244140625,175.88743591308594,103.5293960571289,2.1347718238830566
2,-7,-17,-7,-7,-13,-6,-3,-1.020640524384515,1.7469594207939496,-0.6957461831475402,227.1493682861328,674.2478637695312,148.1855010986328,87.22125244140625,175.88743591308594,103.5293960571289,2.1347718238830566
-2,10,19,-1,3,-1,4,3,-1.020640524384515,1.7469594207939496,-0.6957461831475402,227.1493682861328,674.2478637695312,148.1855010986328,87.22125244140625,175.88743591308594,103.5293960571289,2.1347718238830566
1,-12,-14,1,1,-12,-12,-17,-1.0344797036634619,1.739005081590294,-0.6935975494611344,227.1493682861328,674.2478637695312,148.1855010986328,87.22125244140625,175.88743591308594,103.5293960571289,2.138782024383545
0,28,33,-12,-6,-4,-1,0,-1.0344797036634619,1.739005081590294,-0.6935975494611344,227.1493682861328,674.2478637695312,148.1855010986328,87.22125244140625,175.88743591308594,103.5293960571289,2.138782024383545
3,-32,-41,12,8,10,7,9,-1.0589004119205674,1.7326587420755715,-0.7016207127391195,227.1493682861328,674.2478637695312,148.1855010986328,87.22125244140625,175.88743591308594,103.5293960571289,2.1489856243133545
1,-1,-10,3,-3,0,-2,-12,-1.0589004119205674,1.7326587420755715,-0.7016207127391195,227.1493682861328,674.2478637695312,148.1855010986328,87.22125244140625,175.88743591308594,103.5293960571289,2.1489856243133545
-3,5,6,1,1,1,4,12,-1.0733191549186258,1.766075356490737,-0.7062979791411572,227.1493682861328,674.2478637695312,148.1840362548828,87.22163391113281,175.88755798339844,103.52977752685547,2.162623882293701
-3,5,3,5,3,18,4,-5,-1.0733191549186258,1.766075356490737,-0.7062979791411572,227.1493682861328,674.2478637695312,148.1840362548828,87.22163391113281,175.88755798339844,103.52977752685547,2.162623882293701
-3,4,15,-4,-5,-29,-18,-12,-1.0733191549186258,1.766075356490737,-0.7062979791411572,227.1493682861328,674.2478637695312,148.1840362548828,87.22163391113281,175.88755798339844,103.52977752685547,2.16463041305542
-1,-5,-4,-1,-4,-4,-6,-4,-1.0733191549186258,1.766075356490737,-0.7062979791411572,227.1493682861328,674.2478637695312,148.1840362548828,87.22163391113281,175.88755798339844,103.52977752685547,2.16463041305542
-3,30,46,-7,0,8,8,12,-1.2075226523032225,1.8837971195731098,-0.6986454047037352,227.1493682861328,674.2478637695312,148.1840362548828,87.22163391113281,175.88755798339844,103.52977752685547,2.1932015419006348
-3,-35,-46,0,3,-3,0,-3,-1.2075226523032225,1.8837971195731098,-0.6986454047037352,227.1493682861328,674.2478637695312,148.1840362548828,87.22163391113281,175.88755798339844,103.52977752685547,2.1932015419006348
-1,0,-15,-7,-4,7,3,-1,-1.2075226523032225,1.8837971195731098,-0.6986454047037352,227.1493682861328,674.2478637695312,148.1840362548828,87.22163391113281,175.88755798339844,103.52977752685547,2.1952061653137207
0,9,19,-1,-1,-3,4,-1,-1.2075226523032225,1.8837971195731098,-0.6986454047037352,227.1493682861328,674.2478637695312,148.1840362548828,87.22163391113281,175.88755798339844,103.52977752685547,2.1952061653137207
3,7,-1,-11,-3,3,1,-1,-1.2586109873628737,2.0267778647291124,-0.6847527381818582,227.1507568359375,674.2473754882812,148.1840362548828,87.22151184082031,175.88755798339844,103.52977752685547,2.208240509033203
-5,-10,5,2,-2,-5,1,9,-1.2586109873628737,2.0267778647291124,-0.6847527381818582,227.1507568359375,674.2473754882812,148.1840362548828,87.22151184082031,175.88755798339844,103.52977752685547,2.209243059158325
0,9,3,6,6,7,5,16,-1.2586109873628737,2.0267778647291124,-0.6847527381818582,227.1507568359375,674.2473754882812,148.1840362548828,87.22151184082031,175.88755798339844,103.52977752685547,2.209243059158325
-1,-2,10,-6,-4,-8,-7,-22,-1.2586109873628737,2.0267778647291124,-0.6847527381818582,227.1507568359375,674.2473754882812,148.1840362548828,87.22151184082031,175.88755798339844,103.52977752685547,2.2102460861206055
3,-19,-29,-6,-8,9,-6,-8,-1.2872627954647455,2.0207741574609885,-0.6068724824426623,227.1493682861328,674.2478637695312,148.1855010986328,87.22125244140625,175.88743591308594,103.5293960571289,2.222578287124634
4,-12,-15,0,-3,-29,-19,1,-1.2872627954647455,2.0207741574609885,-0.6068724824426623,227.1493682861328,674.2478637695312,148.1855010986328,87.22125244140625,175.88743591308594,103.5293960571289,2.222578287124634
2,6,11,1,2,8,6,15,-1.2872627954647455,2.0207741574609885,-0.6068724824426623,227.1493682861328,674.2478637695312,148.1855010986328,87.22125244140625,175.88743591308594,103.5293960571289,2.2250876426696777
0,14,16,1,2,4,7,14,-1.2872627954647455,2.0207741574609885,-0.6068724824426623,227.1493682861328,674.2478637695312,148.1855010986328,87.22125244140625,175.88743591308594,103.5293960571289,2.2250876426696777
-1,-20,-26,3,0,0,3,-8,-1.3089810188005322,2.0066789436935206,-0.5920033698603233,227.1493682861328,674.2478637695312,148.1855010986328,87.22125244140625,175.88743591308594,103.5293960571289,2.245849370956421
3,7,18,6,1,2,-3,-3,-1.3089810188005322,2.0066789436935206,-0.5920033698603233,227.1493682861328,674.2478637695312,148.1855010986328,87.22125244140625,175.88743591308594,103.5293960571289,2.245849370956421
-1,28,14,-11,-4,-4,-3,7,-1.3089810188005322,2.0066789436935206,-0.5920033698603233,227.1493682861328,674.2478637695312,148.1855010986328,87.22125244140625,175.88743591308594,103.5293960571289,2.24748158454895
-1,4,14,13,3,3,0,-16,-1.3089810188005322,2.0066789436935206,-0.5920033698603233,227.1493682861328,674.2478637695312,148.1840362548828,87.22163391113281,175.88755798339844,103.52977752685547,2.2484822273254395
-6,-12,-10,-4,-6,-7,-3,4,-1.3456814457166115,2.0792402194650403,-0.6137415110875448,227.1493682861328,674.2478637695312,148.1840362548828,87.22163391113281,175.88755798339844,103.52977752685547,2.2752761840820312
-1,2,9,-5,-6,-9,-7,-25,-1.3456814457166115,2.0792402194650403,-0.6137415110875448,227.1493682861328,674.2478637695312,148.1840362548828,87.22163391113281,175.88755798339844,103.52977752685547,2.2763872146606445
3,5,5,0,1,5,3,5,-1.3071693211063382,2.0604376553746793,-0.613191042532008,227.1493682861328,674.2478637695312,148.1840362548828,87.22163391113281,175.88755798339844,103.52977752685547,2.277427911758423
-4,3,-1,-2,0,3,5,21,-1.3354007566462969,2.049353256547083,-0.6190031182355733,227.1493682861328,674.2478637695312,148.1840362548828,87.22163391113281,175.88755798339844,103.52977752685547,2.277427911758423
1,6,0,1,6,3,4,-18,-1.2979897520719763,2.024964494044555,-0.6357130572640515,227.1493682861328,674.2478637695312,148.1840362548828,87.22163391113281,175.88755798339844,103.52977752685547,2.2831766605377197
-4,-6,-5,-9,-6,-4,-1,12,-1.2979897520719763,2.024964494044555,-0.6357130572640515,227.1493682861328,674.2478637695312,148.1840362548828,87.22163391113281,175.88755798339844,103.52977752685547,2.284343719482422
-5,-3,-3,-7,-4,-1,-9,-10,-1.2979897520719763,2.024964494044555,-0.6357130572640515,227.1493682861328,674.2478637695312,148.1840362548828,87.22163391113281,175.88755798339844,103.52977752685547,2.2855966091156006
0,1,22,8,-1,-3,-1,9,-1.2979897520719763,2.024964494044555,-0.6357130572640515,227.1493682861328,674.2478637695312,148.1840362548828,87.22163391113281,175.88755798339844,103.52977752685547,2.2855966091156006
1,-3,-5,3,3,3,6,6,-1.2184647108201414,1.9763580053711052,-0.6862975303237931,227.1493682861328,674.2478637695312,148.1840362548828,87.22163391113281,175.88755798339844,103.52977752685547,2.3057169914245605
1,13,11,-1,1,2,4,1,-1.1886422902829634,1.9683778252239892,-0.6760781683513748,227.1493682861328,674.2478637695312,148.1840362548828,87.22163391113281,175.88755798339844,103.52977752685547,2.3057169914245605
-1,-21,-19,7,-1,-4,-4,-10,-1.1886422902829634,1.9683778252239892,-0.6760781683513748,227.1493682861328,674.2478637695312,148.1840362548828,87.22163391113281,175.88755798339844,103.52977752685547,2.3067626953125
0,-10,-22,-8,-2,-4,-1,-7,-1.1886422902829634,1.9683778252239892,-0.6760781683513748,227.1493682861328,674.2478637695312,148.1840362548828,87.22163391113281,175.88755798339844,103.52977752685547,2.3067626953125
0,-2,-3,-4,-4,-5,0,-1,-1.02413893904548,1.819238839534379,-0.7140218170044963,227.1493682861328,674.2478637695312,148.1840362548828,87.22163391113281,175.88755798339844,103.52977752685547,2.3295958042144775
-3,3,2,7,3,3,4,3,-1.02413893904548,1.819238839534379,-0.7140218170044963,227.1493682861328,674.2478637695312,148.1840362548828,87.22163391113281,175.88755798339844,103.52977752685547,2.3295958042144775
-2,-2,5,1,-1,2,0,6,-1.02413893904548,1.819238839534379,-0.7140218170044963,227.1493682861328,674.2478637695312,148.1840362548828,87.22163391113281,175.88755798339844,103.52977752685547,2.3305983543395996
-3,-2,-14,-11,-6,-8,-9,-15,-1.02413893904548,1.819238839534379,-0.7140218170044963,227.1493682861328,674.2478637695312,148.1840362548828,87.22163391113281,175.88755798339844,103.52977752685547,2.3305983543395996
0,0,3,-4,2,4,6,16,-0.9638029793618619,1.7269473328803433,-0.7236567082641231,227.1493682861328,674.2478637695312,148.1840362548828,87.22163391113281,175.88755798339844,103.52977752685547,2.3426296710968018
-4,11,12,8,4,1,4,-8,-0.9176402593527286,1.7030507383405642,-0.7202241084098167,227.1493682861328,674.2478637695312,148.1840362548828,87.22163391113281,175.88755798339844,103.52977752685547,2.3426296710968018
2,-14,-4,4,-2,-5,-10,-35,-0.9176402593527286,1.7030507383405642,-0.7202241084098167,227.1493682861328,674.2478637695312,148.1840362548828,87.22163391113281,175.88755798339844,103.52977752685547,2.3496484756469727
4,1,0,-1,-1,1,3,30,-0.9176402593527286,1.7030507383405642,-0.7202241084098167,227.1493682861328,674.2478637695312,148.1840362548828,87.22163391113281,175.88755798339844,103.52977752685547,2.3496484756469727
0,21,-2,-11,2,2,-2,-15,-0.744875357896604,1.4758041273021414,-0.7127338904285174,227.1493682861328,674.2478637695312,148.1840362548828,87.22163391113281,175.88755798339844,103.52977752685547,2.381732702255249
-1,-14,-5,0,-3,-3,-2,2,-0.744875357896604,1.4758041273021414,-0.7127338904285174,227.1493682861328,674.2478637695312,148.1840362548828,87.22163391113281,175.88755798339844,103.52977752685547,2.381732702255249
1,8,5,-8,-4,-3,0,1,-0.744875357896604,1.4758041273021414,-0.7127338904285174,227.1493682861328,674.2478637695312,148.1840362548828,87.22163391113281,175.88755798339844,103.52977752685547,2.38273549079895
-2,-11,-20,-1,0,0,2,-2,-0.744875357896604,1.4758041273021414,-0.7127338904285174,227.1493682861328,674.2478637695312,148.1840362548828,87.22163391113281,175.88755798339844,103.52977752685547,2.38273549079895
0,3,8,1,-1,2,-1,-6,-0.7116699737073546,1.4533938932856478,-0.7255647395886604,227.1493682861328,674.2478637695312,148.1840362548828,87.22163391113281,175.88755798339844,103.52977752685547,2.3877480030059814
1,2,-10,-2,0,-2,2,2,-0.7116699737073546,1.4533938932856478,-0.7255647395886604,227.1493682861328,674.2478637695312,148.1840362548828,87.22163391113281,175.88755798339844,103.52977752685547,2.3887510299682617
-6,-6,4,11,5,6,2,2,-0.7116699737073546,1.4533938932856478,-0.7255647395886604,227.1493682861328,674.2478637695312,148.1840362548828,87.22163391113281,175.88755798339844,103.52977752685547,2.3897533416748047
2,2,6,4,3,-2,2,-1,-0.7116699737073546,1.4533938932856478,-0.7255647395886604,227.1493682861328,674.2478637695312,148.1840362548828,87.22163391113281,175.88755798339844,103.52977752685547,2.3897533416748047
-1,-19,-6,31,2,-3,-3,-12,-0.6959506840460715,1.4685565626580306,-0.6755137136060485,227.1493682861328,674.2478637695312,148.1855010986328,87.22125244140625,175.88743591308594,103.5293960571289,2.402787685394287
-5,1,-4,-10,-8,-8,-8,-12,-0.6959506840460715,1.4685565626580306,-0.6755137136060485,227.1493682861328,674.2478637695312,148.1855010986328,87.22125244140625,175.88743591308594,103.5293960571289,2.402787685394287
3,7,7,-3,2,0,-2,10,-0.7075114690315075,1.461602652294196,-0.6837081284827972,227.1493682861328,674.2478637695312,148.1855010986328,87.22125244140625,175.88743591308594,103.5293960571289,2.4088027477264404
-1,-13,-41,-19,-3,0,0,-9,-0.7075114690315075,1.461602652294196,-0.6837081284827972,227.1493682861328,674.2478637695312,148.1855010986328,87.22125244140625,175.88743591308594,103.5293960571289,2.4098057746887207
0,8,38,11,0,-2,-2,-9,-0.6613245803659882,1.4339316633955352,-0.6259298964073078,227.1493682861328,674.2478637695312,148.1855010986328,87.22125244140625,175.88743591308594,103.5293960571289,2.425344705581665
-1,-7,-6,0,-1,-1,-3,5,-0.6613245803659882,1.4339316633955352,-0.6259298964073078,227.1493682861328,674.2478637695312,148.1855010986328,87.22125244140625,175.88743591308594,103.5293960571289,2.426344156265259
-3,3,1,-2,-1,-1,0,3,-0.6613245803659882,1.4339316633955352,-0.6259298964073078,227.1493682861328,674.2478637695312,148.1855010986328,87.22125244140625,175.88743591308594,103.5293960571289,2.426344156265259
2,1,1,-1,-2,1,1,1,-0.6613245803659882,1.4339316633955352,-0.6259298964073078,227.1493682861328,674.2478637695312,148.1855010986328,87.22125244140625,175.88743591308594,103.5293960571289,2.4273462295532227
0,1,4,-6,-1,-2,2,1,-0.6242582033528431,1.411356074547288,-0.6858447711444265,227.1493682861328,674.2478637695312,148.1840362548828,87.22163391113281,175.88755798339844,103.52977752685547,2.44840145111084
-1,3,-1,-1,2,2,-1,-10,-0.6149420124282307,1.368629458469221,-0.7401617392131027,227.1493682861328,674.2478637695312,148.1840362548828,87.22163391113281,175.88755798339844,103.52977752685547,2.44840145111084
-1,31,33,-13,-5,-1,-1,17,-0.6149420124282307,1.368629458469221,-0.7401617392131027,227.1493682861328,674.2478637695312,148.1840362548828,87.22163391113281,175.88755798339844,103.52977752685547,2.449404001235962
-1,-52,-78,2,3,3,4,7,-0.6149420124282307,1.368629458469221,-0.7401617392131027,227.1493682861328,674.2478637695312,148.1840362548828,87.22163391113281,175.88755798339844,103.52977752685547,2.449404001235962
-6,-9,-4,-2,-2,-2,-5,-10,-0.5658545213404431,1.3083969761656467,-0.7815180259329716,227.1493682861328,674.2478637695312,148.1840362548828,87.22163391113281,175.88755798339844,103.52977752685547,2.4634408950805664
1,-3,-3,-5,-2,-3,-3,-2,-0.5658545213404431,1.3083969761656467,-0.7815180259329716,227.1493682861328,674.2478637695312,148.1840362548828,87.22163391113281,175.88755798339844,103.52977752685547,2.4634408950805664
-2,2,-4,-8,-4,-1,-1,-7,-0.5373672235413404,1.2892241299396956,-0.7873463526826713,227.1493682861328,674.2478637695312,148.1840362548828,87.22163391113281,175.88755798339844,103.52977752685547,2.469456672668457
0,23,53,5,-4,-3,-1,1,-0.5373672235413404,1.2892241299396956,-0.7873463526826713,227.1493682861328,674.2478637695312,148.1840362548828,87.22163391113281,175.88755798339844,103.52977752685547,2.470459461212158
-1,-16,-27,-10,-2,0,4,6,-0.4414016565666641,1.1707019088936819,-0.7624714349632341,227.1493682861328,674.2478637695312,148.1840362548828,87.22163391113281,175.88755798339844,103.52977752685547,2.4850573539733887
4,11,17,4,1,0,0,-5,-0.4414016565666641,1.1707019088936819,-0.7624714349632341,227.1493682861328,674.2478637695312,148.1840362548828,87.22163391113281,175.88755798339844,103.52977752685547,2.4861183166503906
6,-6,-11,-2,-2,0,-1,10,-0.4397563231488804,1.1669156581704516,-0.7824303666091948,227.1493682861328,674.2478637695312,148.1855010986328,87.22125244140625,175.88743591308594,103.5293960571289,2.4871957302093506
-3,-13,-27,-4,-3,-4,-4,-17,-0.4397563231488804,1.1669156581704516,-0.7824303666091948,227.1493682861328,674.2478637695312,148.1855010986328,87.22125244140625,175.88743591308594,103.5293960571289,2.4871957302093506
-3,2,-6,-9,-2,1,4,14,-0.3213521318010464,1.0579019586292004,-0.7785856505474676,227.1493682861328,674.2478637695312,148.1855010986328,87.22125244140625,175.88743591308594,103.5293960571289,2.515085458755493
-1,11,26,0,1,4,6,2,-0.3213521318010464,1.0579019586292004,-0.7785856505474676,227.1493682861328,674.2478637695312,148.1855010986328,87.22125244140625,175.88743591308594,103.5293960571289,2.515085458755493
-4,-10,1,4,-2,-4,-11,-27,-0.27394774896248947,1.0238627543942365,-0.7557392987873736,227.1493682861328,674.2478637695312,148.1855010986328,87.22125244140625,175.88743591308594,103.5293960571289,2.524120330810547
-2,5,2,5,1,1,-5,8,-0.27394774896248947,1.0238627543942365,-0.7557392987873736,227.1493682861328,674.2478637695312,148.1855010986328,87.22125244140625,175.88743591308594,103.5293960571289,2.5256271362304688
1,11,14,-1,0,4,-2,2,-0.27394774896248947,1.0238627543942365,-0.7557392987873736,227.1493682861328,674.2478637695312,148.1855010986328,87.22125244140625,175.88743591308594,103.5293960571289,2.526632308959961
2,-12,-22,-3,1,-9,3,1,-0.27394774896248947,1.0238627543942365,-0.7557392987873736,227.1493682861328,674.2478637695312,148.1855010986328,87.22125244140625,175.88743591308594,103.5293960571289,2.526632308959961
-1,-5,-8,-2,1,1,2,6,-0.25453859294501074,0.9946438713760369,-0.8102180969372779,227.1493682861328,674.2478637695312,148.1855010986328,87.22125244140625,175.88743591308594,103.5293960571289,2.5286495685577393
-1,4,5,-1,-2,3,-1,-7,-0.25453859294501074,0.9946438713760369,-0.8102180969372779,227.1493682861328,674.2478637695312,148.1855010986328,87.22125244140625,175.88743591308594,103.5293960571289,2.532022476196289
-2,8,0,-6,1,25,17,12,-0.28035047234523514,0.8797333512366022,-0.8453860983638304,227.1493682861328,674.2478637695312,148.1840362548828,87.22163391113281,175.88755798339844,103.52977752685547,2.552900552749634
3,11,30,2,-2,-23,-13,4,-0.28035047234523514,0.8797333512366022,-0.8453860983638304,227.1493682861328,674.2478637695312,148.1840362548828,87.22163391113281,175.88755798339844,103.52977752685547,2.552900552749634
0,-26,-32,4,1,-7,0,-23,-0.254789782101913,0.8447616216979583,-0.821712901043725,227.1493682861328,674.2478637695312,148.1855010986328,87.22125244140625,175.88743591308594,103.5293960571289,2.559011220932007
-1,-6,6,5,0,-3,-1,7,-0.254789782101913,0.8447616216979583,-0.821712901043725,227.1493682861328,674.2478637695312,148.1855010986328,87.22125244140625,175.88743591308594,103.5293960571289,2.559011220932007
-1,-4,-4,2,0,-2,-5,-4,-0.25273468506328456,0.7909809191555965,-0.8435333493482813,227.1493682861328,674.2478637695312,148.1855010986328,87.22125244140625,175.88743591308594,103.5293960571289,2.567662477493286
0,9,7,-4,-2,9,9,11,-0.25273468506328456,0.7909809191555965,-0.8435333493482813,227.1493682861328,674.2478637695312,148.1855010986328,87.22125244140625,175.88743591308594,103.5293960571289,2.567662477493286
3,-3,-21,-4,0,6,2,4,-0.25273468506328456,0.7909809191555965,-0.8435333493482813,227.1493682861328,674.2478637695312,148.1855010986328,87.22125244140625,175.88743591308594,103.5293960571289,2.569840431213379
-5,-7,4,7,-1,-4,-1,-8,-0.25273468506328456,0.7909809191555965,-0.8435333493482813,227.1493682861328,674.2478637695312,148.1855010986328,87.22125244140625,175.88743591308594,103.5293960571289,2.569840431213379
1,9,-7,-16,-5,-9,-3,12,-0.2760608564845115,0.8105443483428402,-0.8213629985557649,227.1493682861328,674.2478637695312,148.1855010986328,87.22125244140625,175.88743591308594,103.5293960571289,2.582981586456299
-1,-20,-31,11,4,10,5,-19,-0.2760608564845115,0.8105443483428402,-0.8213629985557649,227.1493682861328,674.2478637695312,148.1855010986328,87.22125244140625,175.88743591308594,103.5293960571289,2.582981586456299
-1,-4,2,8,-4,-9,-11,-21,-0.3186932780665394,0.900239151438759,-0.7737987483500002,227.1493682861328,674.2478637695312,148.1855010986328,87.22125244140625,175.88743591308594,103.5293960571289,2.607421398162842
1,2,-2,2,0,3,-1,7,-0.3186932780665394,0.900239151438759,-0.7737987483500002,227.1493682861328,674.2478637695312,148.1855010986328,87.22125244140625,175.88743591308594,103.5293960571289,2.607421398162842
0,10,21,3,-1,-12,-4,-12,-0.3218478129011093,0.9313153230791532,-0.7942603612422968,227.1493682861328,674.2478637695312,148.1855010986328,87.22125244140625,175.88743591308594,103.5293960571289,2.608585834503174
-8,-5,-27,-6,2,12,6,-1,-0.3218478129011093,0.9313153230791532,-0.7942603612422968,227.1493682861328,674.2478637695312,148.1855010986328,87.22125244140625,175.88743591308594,103.5293960571289,2.608585834503174
4,20,36,1,-3,-5,0,19,-0.3218478129011093,0.9313153230791532,-0.7942603612422968,227.1493682861328,674.2478637695312,148.1855010986328,87.22125244140625,175.88743591308594,103.5293960571289,2.608585834503174
-2,-8,-6,-1,2,-1,1,-9,-0.3218478129011093,0.9313153230791532,-0.7942603612422968,227.1493682861328,674.2478637695312,148.1855010986328,87.22125244140625,175.88743591308594,103.5293960571289,2.6096813678741455
-2,-3,-3,-3,-2,-8,-5,-15,-0.33437453985082943,0.8878534077058041,-0.8074320840607818,227.1493682861328,674.2478637695312,148.1855010986328,87.22125244140625,175.88743591308594,103.5293960571289,2.6355228424072266
-4,1,-8,-8,-4,-1,-1,5,-0.33437453985082943,0.8878534077058041,-0.8074320840607818,227.1493682861328,674.2478637695312,148.1855010986328,87.22125244140625,175.88743591308594,103.5293960571289,2.6355228424072266
3,9,8,-2,-1,5,5,17,-0.33437453985082943,0.8878534077058041,-0.8074320840607818,227.1493682861328,674.2478637695312,148.1855010986328,87.22125244140625,175.88743591308594,103.5293960571289,2.636791467666626
-3,-2,-7,1,2,7,4,-9,-0.33437453985082943,0.8878534077058041,-0.8074320840607818,227.1493682861328,674.2478637695312,148.1855010986328,87.22125244140625,175.88743591308594,103.5293960571289,2.636791467666626
-2,-16,-19,-1,0,-10,-11,4,-0.35321234095436405,0.9096593651312533,-0.7922640078443186,227.1493682861328,674.2478637695312,148.1840362548828,87.22163391113281,175.88755798339844,103.52977752685547,2.6415579319000244
-2,9,31,9,-1,6,3,0,-0.35381026277884964,0.9069382605171576,-0.7609358513485049,227.1493682861328,674.2478637695312,148.1855010986328,87.22125244140625,175.88743591308594,103.5293960571289,2.642954111099243
-2,-4,-19,-4,-1,-1,-1,-4,-0.3588303539361153,0.9493585279696557,-0.7988147605542661,227.1493682861328,674.2478637695312,148.1840362548828,87.22163391113281,175.88755798339844,103.52977752685547,2.656623125076294
2,8,3,-4,0,-1,0,14,-0.3588303539361153,0.9493585279696557,-0.7988147605542661,227.1493682861328,674.2478637695312,148.1840362548828,87.22163391113281,175.88755798339844,103.52977752685547,2.656623125076294
-3,-28,10,15,-2,-1,1,-17,-0.35945771023827744,0.9621596663956019,-0.7882050943889914,227.1493682861328,674.2478637695312,148.1855010986328,87.22125244140625,175.88743591308594,103.5293960571289,2.6671247482299805
-3,0,-1,-8,-2,-3,-9,-11,-0.35945771023827744,0.9621596663956019,-0.7882050943889914,227.1493682861328,674.2478637695312,148.1855010986328,87.22125244140625,175.88743591308594,103.5293960571289,2.6671247482299805
2,3,-2,-1,-2,2,3,18,-0.35945771023827744,0.9621596663956019,-0.7882050943889914,227.1493682861328,674.2478637695312,148.1855010986328,87.22125244140625,175.88743591308594,103.5293960571289,2.6671247482299805
1,12,5,-7,-3,4,1,-24,-0.35945771023827744,0.9621596663956019,-0.7882050943889914,227.1493682861328,674.2478637695312,148.1855010986328,87.22125244140625,175.88743591308594,103.5293960571289,2.6671247482299805
-2,8,26,6,0,-6,-4,12,-0.40820047171610996,0.9890123299229553,-0.7588124383371113,227.15077209472656,674.2473754882812,148.1855010986328,87.22113800048828,175.88743591308594,103.5293960571289,2.6876425743103027
-1,-5,-9,-4,-1,1,4,6,-0.40820047171610996,0.9890123299229553,-0.7588124383371113,227.15077209472656,674.2473754882812,148.1855010986328,87.22113800048828,175.88743591308594,103.5293960571289,2.689509153366089
-3,-4,-4,0,0,-1,-1,0,-0.40820047171610996,0.9890123299229553,-0.7588124383371113,227.15077209472656,674.2473754882812,148.1855010986328,87.22113800048828,175.88743591308594,103.5293960571289,2.689509153366089
-2,15,28,0,-2,2,0,5,-0.40820047171610996,0.9890123299229553,-0.7588124383371113,227.15077209472656,674.2473754882812,148.1855010986328,87.22113800048828,175.88743591308594,103.5293960571289,2.689509153366089
-5,-7,-36,-7,2,4,7,-20,-0.432422907937241,1.0512110356723412,-0.7352596069231496,227.15077209472656,674.2473754882812,148.1855010986328,87.22113800048828,175.88743591308594,103.5293960571289,2.701659917831421
-2,8,2,-11,-5,-9,-9,-13,-0.432422907937241,1.0512110356723412,-0.7352596069231496,227.15077209472656,674.2473754882812,148.1855010986328,87.22113800048828,175.88743591308594,103.5293960571289,2.701659917831421
1,-7,9,8,0,3,-2,6,-0.42823778276665325,1.0387741053564195,-0.732653223869295,227.15077209472656,674.2473754882812,148.1855010986328,87.22113800048828,175.88743591308594,103.5293960571289,2.7105462551116943
0,-11,-11,9,-1,-8,-1,-3,-0.42823778276665325,1.0387741053564195,-0.732653223869295,227.15077209472656,674.2473754882812,148.1855010986328,87.22113800048828,175.88743591308594,103.5293960571289,2.7110493183135986
0,4,0,-7,-3,3,-1,-4,-0.3924513245452514,1.006260731508318,-0.7138192930798539,227.15077209472656,674.2473754882812,148.1855010986328,87.22113800048828,175.88743591308594,103.5293960571289,2.7244226932525635
-1,-1,-26,-8,-1,1,4,-2,-0.3924513245452514,1.006260731508318,-0.7138192930798539,227.15077209472656,674.2473754882812,148.1855010986328,87.22113800048828,175.88743591308594,103.5293960571289,2.7244226932525635
1,-3,-3,-3,1,7,-1,-8,-0.3530062926715861,0.9991174309988912,-0.7273085679424098,227.15077209472656,674.2473754882812,148.1855010986328,87.22113800048828,175.88743591308594,103.5293960571289,2.733384609222412
0,0,-2,-5,0,-5,-4,1,-0.3530062926715861,0.9991174309988912,-0.7273085679424098,227.15077209472656,674.2473754882812,148.1855010986328,87.22113800048828,175.88743591308594,103.5293960571289,2.733384609222412
4,3,13,-4,-2,-5,-2,6,-0.35041055114429703,0.9775998366801302,-0.7518841663818521,227.15077209472656,674.2473754882812,148.1855010986328,87.22113800048828,175.88743591308594,103.5293960571289,2.7487027645111084
2,-3,0,8,3,1,2,-1,-0.35041055114429703,0.9775998366801302,-0.7518841663818521,227.15077209472656,674.2473754882812,148.1855010986328,87.22113800048828,175.88743591308594,103.5293960571289,2.7487027645111084
-1,5,4,1,-1,9,2,0,-0.35041055114429703,0.9775998366801302,-0.7518841663818521,227.15077209472656,674.2473754882812,148.1855010986328,87.22113800048828,175.88743591308594,103.5293960571289,2.7497053146362305
-2,0,6,-6,-2,-5,-1,2,-0.35041055114429703,0.9775998366801302,-0.7518841663818521,227.15077209472656,674.2473754882812,148.1855010986328,87.22113800048828,175.88743591308594,103.5293960571289,2.7497053146362305
-2,4,-4,-2,1,0,1,1,-0.35664154601528003,1.0013151182525535,-0.7475077943845841,227.15077209472656,674.2473754882812,148.1855010986328,87.22113800048828,175.88743591308594,103.5293960571289,2.7617368698120117
2,-11,-2,1,0,-1,0,-5,-0.3541442722787078,1.0205350143497192,-0.7563060110163101,227.15077209472656,674.2473754882812,148.1855010986328,87.22113800048828,175.88743591308594,103.5293960571289,2.7617368698120117
1,-4,5,2,-1,-8,-7,1,-0.3973038154213968,1.0595816006844885,-0.7638314732822268,227.15077209472656,674.2473754882812,148.1855010986328,87.22113800048828,175.88743591308594,103.5293960571289,2.7707605361938477
-5,1,1,-2,0,3,2,-5,-0.3973038154213968,1.0595816006844885,-0.7638314732822268,227.15077209472656,674.2473754882812,148.1855010986328,87.22113800048828,175.88743591308594,103.5293960571289,2.7707605361938477
1,-2,-15,-8,-5,-5,-2,1,-0.5037775986571531,1.1253276333679274,-0.7425032478789386,227.15077209472656,674.2473754882812,148.1855010986328,87.22113800048828,175.88743591308594,103.5293960571289,2.785799980163574
2,4,8,-3,1,0,-1,1,-0.5037775986571531,1.1253276333679274,-0.7425032478789386,227.15077209472656,674.2473754882812,148.1855010986328,87.22113800048828,175.88743591308594,103.5293960571289,2.785799980163574
-1,-16,-34,-8,1,0,1,5,-0.5037775986571531,1.1253276333679274,-0.7425032478789386,227.15077209472656,674.2473754882812,148.1855010986328,87.22113800048828,175.88743591308594,103.5293960571289,2.786802291870117
-3,5,21,8,-1,2,3,-4,-0.5037775986571531,1.1253276333679274,-0.7425032478789386,227.15077209472656,674.2473754882812,148.1855010986328,87.22113800048828,175.88743591308594,103.5293960571289,2.786802291870117
-2,5,13,1,-1,-8,-9,-4,-0.6949067730901349,1.3545997476553375,-0.7368691076830071,227.15077209472656,674.2473754882812,148.1855010986328,87.22113800048828,175.88743591308594,103.5293960571289,2.8078577518463135
6,-10,-12,-4,0,0,-4,-16,-0.6949067730901349,1.3545997476553375,-0.7368691076830071,227.15077209472656,674.2473754882812,148.1855010986328,87.22113800048828,175.88743591308594,103.5293960571289,2.8088598251342773
1,6,16,12,0,-4,-7,5,-0.6949067730901349,1.3545997476553375,-0.7368691076830071,227.15077209472656,674.2473754882812,148.1855010986328,87.22113800048828,175.88743591308594,103.5293960571289,2.809863328933716
2,2,-2,-6,0,3,1,4,-0.6949067730901349,1.3545997476553375,-0.7368691076830071,227.15077209472656,674.2473754882812,148.1855010986328,87.22113800048828,175.88743591308594,103.5293960571289,2.809863328933716
0,1,1,0,0,4,4,11,-0.720356949890081,1.4104925761849514,-0.717217290952469,227.15077209472656,674.2473754882812,148.1855010986328,87.22113800048828,175.88743591308594,103.5293960571289,2.8218910694122314
2,-14,-22,-5,-3,-3,3,-3,-0.720356949890081,1.4104925761849514,-0.717217290952469,227.15077209472656,674.2473754882812,148.1855010986328,87.22113800048828,175.88743591308594,103.5293960571289,2.8218910694122314
0,3,10,-6,-2,-3,-9,-11,-0.7319169706902942,1.4518261607316931,-0.762042105972901,227.15077209472656,674.2473754882812,148.1855010986328,87.22113800048828,175.88743591308594,103.5293960571289,2.830399990081787
-2,-10,-16,-4,-4,-3,3,6,-0.7319169706902942,1.4518261607316931,-0.762042105972901,227.15077209472656,674.2473754882812,148.1855010986328,87.22113800048828,175.88743591308594,103.5293960571289,2.831402540206909
0,5,8,1,3,4,5,7,-0.7730349677652317,1.514187451465934,-0.705636779987628,227.15077209472656,674.2473754882812,148.1855010986328,87.22113800048828,175.88743591308594,103.5293960571289,2.85345721244812
-3,-2,-13,-9,-3,5,0,6,-0.7730349677652317,1.514187451465934,-0.705636779987628,227.15077209472656,674.2473754882812,148.1855010986328,87.22113800048828,175.88743591308594,103.5293960571289,2.854459762573242
2,-25,-28,3,-3,-10,-9,-32,-0.7730349677652317,1.514187451465934,-0.705636779987628,227.15077209472656,674.2473754882812,148.1855010986328,87.22113800048828,175.88743591308594,103.5293960571289,2.854459762573242
-1,0,3,-2,-4,-4,-7,16,-0.7730349677652317,1.514187451465934,-0.705636779987628,227.15077209472656,674.2473754882812,148.1855010986328,87.22113800048828,175.88743591308594,103.5293960571289,2.854459762573242
-2,-4,-14,-9,0,4,3,0,-0.8438358611896615,1.5580776912404128,-0.7041150931468865,227.15077209472656,674.2473754882812,148.1855010986328,87.22113800048828,175.88743591308594,103.5293960571289,2.8694989681243896
-1,-4,11,2,-1,-5,5,7,-0.8438358611896615,1.5580776912404128,-0.7041150931468865,227.15077209472656,674.2473754882812,148.1855010986328,87.22113800048828,175.88743591308594,103.5293960571289,2.8694989681243896
-1,13,13,1,0,2,0,10,-0.8783167261506902,1.5972534673035796,-0.6706606065959334,227.15077209472656,674.2473754882812,148.1855010986328,87.22113800048828,175.88743591308594,103.5293960571289,2.874512195587158
-3,-4,-4,-3,-3,-2,-2,-14,-0.8783167261506902,1.5972534673035796,-0.6706606065959334,227.15077209472656,674.2473754882812,148.1855010986328,87.22113800048828,175.88743591308594,103.5293960571289,2.874512195587158
1,-7,8,4,1,-1,0,-10,-0.8906075211075843,1.6293273068973053,-0.646570805122207,227.15077209472656,674.2473754882812,148.1855010986328,87.22113800048828,175.88743591308594,103.5293960571289,2.881530284881592
-3,16,20,10,5,5,0,12,-0.8906075211075843,1.6293273068973053,-0.646570805122207,227.15077209472656,674.2473754882812,148.1855010986328,87.22113800048828,175.88743591308594,103.5293960571289,2.882533311843872
-3,1,9,9,-1,2,-1,0,-0.909643534643377,1.6543321860947782,-0.6480075469169899,227.15077209472656,674.2473754882812,148.1855010986328,87.22113800048828,175.88743591308594,103.5293960571289,2.890399694442749
0,-2,-4,-2,-3,-5,-3,2,-0.909643534643377,1.6543321860947782,-0.6480075469169899,227.15077209472656,674.2473754882812,148.1855010986328,87.22113800048828,175.88743591308594,103.5293960571289,2.890399694442749
-3,-13,-29,9,2,2,3,11,-0.8992649471768998,1.6746987963260231,-0.6879113140435311,227.15077209472656,674.2473754882812,148.1855010986328,87.22113800048828,175.88743591308594,103.5293960571289,2.912578582763672
3,2,8,-5,-5,-5,-5,-15,-0.8992649471768998,1.6746987963260231,-0.6879113140435311,227.15077209472656,674.2473754882812,148.1855010986328,87.22113800048828,175.88743591308594,103.5293960571289,2.913861036300659
0,-1,-5,-3,-2,-4,-3,12,-0.8992649471768998,1.6746987963260231,-0.6879113140435311,227.15077209472656,674.2473754882812,148.1855010986328,87.22113800048828,175.88743591308594,103.5293960571289,2.9148664474487305
2,-1,-11,-9,1,5,4,-3,-0.8992649471768998,1.6746987963260231,-0.6879113140435311,227.15077209472656,674.2473754882812,148.1855010986328,87.22113800048828,175.88743591308594,103.5293960571289,2.9148664474487305
-4,-1,5,-5,0,3,3,9,-0.7900950558403066,1.5825978828321812,-0.7176175850171186,227.15077209472656,674.2473754882812,148.1855010986328,87.22113800048828,175.88743591308594,103.5293960571289,2.9283735752105713
-10,6,22,12,1,-5,-5,-18,-0.7900950558403066,1.5825978828321812,-0.7176175850171186,227.15077209472656,674.2473754882812,148.1855010986328,87.22113800048828,175.88743591308594,103.5293960571289,2.9283735752105713
-2,1,-14,-5,-3,5,-1,8,-0.7900950558403066,1.5825978828321812,-0.7176175850171186,227.15077209472656,674.2473754882812,148.1855010986328,87.22113800048828,175.88743591308594,103.5293960571289,2.929452657699585
5,-1,5,-2,-1,-9,-4,-3,-0.7900950558403066,1.5825978828321812,-0.7176175850171186,227.15077209472656,674.2473754882812,148.1855010986328,87.22113800048828,175.88743591308594,103.5293960571289,2.930804491043091
1,1,-9,-7,-3,3,-2,-3,-0.7204465208283457,1.5402486152559771,-0.7009490576542465,227.15077209472656,674.2473754882812,148.1855010986328,87.22113800048828,175.88743591308594,103.5293960571289,2.941518545150757
0,4,14,-4,2,3,3,6,-0.7204465208283457,1.5402486152559771,-0.7009490576542465,227.15077209472656,674.2473754882812,148.1855010986328,87.22113800048828,175.88743591308594,103.5293960571289,2.941518545150757
-1,-3,-7,1,-2,-8,-5,7,-0.6241487788851929,1.4932791464223178,-0.7284856514910617,227.15077209472656,674.2473754882812,148.1855010986328,87.22113800048828,175.88743591308594,103.5293960571289,2.9679319858551025
-1,-7,-1,6,1,2,1,-9,-0.6241487788851929,1.4932791464223178,-0.7284856514910617,227.15077209472656,674.2473754882812,148.1855010986328,87.22113800048828,175.88743591308594,103.5293960571289,2.9679319858551025
-1,-5,-5,-1,-2,-2,-3,-11,-0.6241487788851929,1.4932791464223178,-0.7284856514910617,227.15077209472656,674.2473754882812,148.1855010986328,87.22113800048828,175.88743591308594,103.5293960571289,2.9679319858551025
-1,-2,-15,-8,-3,1,1,5,-0.6241487788851929,1.4932791464223178,-0.7284856514910617,227.15077209472656,674.2473754882812,148.1855010986328,87.22113800048828,175.88743591308594,103.5293960571289,2.9679319858551025
2,3,2,-1,1,0,-1,3,-0.6241487788851929,1.4932791464223178,-0.7284856514910617,227.15077209472656,674.2473754882812,148.1855010986328,87.22113800048828,175.88743591308594,103.5293960571289,2.97184419631958
3,5,8,-6,0,-1,-1,-17,-0.63178253005278,1.4784906966236564,-0.729502133494758,227.15077209472656,674.2473754882812,148.1855010986328,87.22113800048828,175.88743591308594,103.5293960571289,2.97184419631958
1,-15,-35,8,-4,-4,-4,3,-0.595612706781024,1.4878350382557937,-0.7449237324051126,227.15077209472656,674.2473754882812,148.1855010986328,87.22113800048828,175.88743591308594,103.5293960571289,2.9879279136657715
-2,-10,-8,3,1,-2,5,14,-0.595612706781024,1.4878350382557937,-0.7449237324051126,227.15077209472656,674.2473754882812,148.1855010986328,87.22113800048828,175.88743591308594,103.5293960571289,2.989116668701172
1,7,17,6,1,3,0,-22,-0.595612706781024,1.4878350382557937,-0.7449237324051126,227.15077209472656,674.2473754882812,148.1855010986328,87.22113800048828,175.88743591308594,103.5293960571289,2.9896199703216553
-2,-4,-12,-4,-4,-9,-7,-13,-0.595612706781024,1.4878350382557937,-0.7449237324051126,227.15077209472656,674.2473754882812,148.1855010986328,87.22113800048828,175.88743591308594,103.5293960571289,2.9896199703216553
4,18,20,-6,-1,3,1,5,-0.6024864622361397,1.4795092699065893,-0.7226606958570881,227.15077209472656,674.2473754882812,148.1855010986328,87.22113800048828,175.88743591308594,103.5293960571289,3.001309633255005
5,-6,-8,1,0,-2,1,1,-0.6024864622361397,1.4795092699065893,-0.7226606958570881,227.15077209472656,674.2473754882812,148.1855010986328,87.22113800048828,175.88743591308594,103.5293960571289,3.001309633255005
-3,17,28,-3,-2,6,3,12,-0.6216017833290882,1.4942736706118924,-0.7168676409353109,227.15077209472656,674.2473754882812,148.1855010986328,87.22113800048828,175.88743591308594,103.5293960571289,3.0108306407928467
-3,-12,-15,5,2,-1,-1,-2,-0.6216017833290882,1.4942736706118924,-0.7168676409353109,227.15077209472656,674.2473754882812,148.1855010986328,87.22113800048828,175.88743591308594,103.5293960571289,3.0108306407928467
-2,3,6,3,-2,-4,1,-5,-0.6033905967737803,1.5114126703524509,-0.6971638901212933,227.15077209472656,674.2473754882812,148.1855010986328,87.22113800048828,175.88743591308594,103.5293960571289,3.026695966720581
-2,-6,-9,-4,-2,-1,-6,1,-0.6033905967737803,1.5114126703524509,-0.6971638901212933,227.15077209472656,674.2473754882812,148.1855010986328,87.22113800048828,175.88743591308594,103.5293960571289,3.026695966720581
5,1,3,1,-1,0,-1,1,-0.6033905967737803,1.5114126703524509,-0.6971638901212933,227.15077209472656,674.2473754882812,148.1855010986328,87.22113800048828,175.88743591308594,103.5293960571289,3.026695966720581
-2,1,-5,-7,-1,3,-1,9,-0.5958994961125995,1.492856651757135,-0.7109695934273317,227.15077209472656,674.2473754882812,148.1855010986328,87.22113800048828,175.88743591308594,103.5293960571289,3.02791690826416
0,3,7,-1,-1,-7,-1,2,-0.5647717788491006,1.4864889399854255,-0.6850748193260565,227.15077209472656,674.2473754882812,148.1855010986328,87.22113800048828,175.88743591308594,103.5293960571289,3.04795241355896
-4,-4,-4,5,3,2,3,1,-0.5647717788491006,1.4864889399854255,-0.6850748193260565,227.15077209472656,674.2473754882812,148.1855010986328,87.22113800048828,175.88743591308594,103.5293960571289,3.048954725265503
0,11,15,-3,2,8,1,10,-0.5647717788491006,1.4864889399854255,-0.6850748193260565,227.15077209472656,674.2473754882812,148.1855010986328,87.22113800048828,175.88743591308594,103.5293960571289,3.0499789714813232
-5,-26,-33,4,0,-1,4,10,-0.5647717788491006,1.4864889399854255,-0.6850748193260565,227.15077209472656,674.2473754882812,148.1855010986328,87.22113800048828,175.88743591308594,103.5293960571289,3.0499789714813232
-1,-10,-10,-3,-1,-8,-9,-44,-0.5731655504511656,1.5205172764658748,-0.663864879635767,227.15077209472656,674.2473754882812,148.1855010986328,87.22113800048828,175.88743591308594,103.5293960571289,3.062232732772827
3,15,26,-9,-9,-8,-5,15,-0.5603754145914313,1.5114339596725745,-0.6704169347883189,227.15077209472656,674.2473754882812,148.1855010986328,87.22113800048828,175.88743591308594,103.5293960571289,3.0632522106170654
-6,-9,-17,-1,2,1,-3,-9,-0.5379148761792916,1.5106474693649312,-0.6914052226468554,227.15077209472656,674.2473754882812,148.1855010986328,87.22113800048828,175.88743591308594,103.5293960571289,3.0710716247558594
-3,10,12,4,0,4,6,18,-0.5379148761792916,1.5106474693649312,-0.6914052226468554,227.15077209472656,674.2473754882812,148.1855010986328,87.22113800048828,175.88743591308594,103.5293960571289,3.071589946746826
-2,0,9,1,2,3,3,0,-0.5208574789030816,1.4879620786507317,-0.679656659147191,227.15077209472656,674.2473754882812,148.1855010986328,87.22113800048828,175.88743591308594,103.5293960571289,3.0854713916778564
1,2,-5,-4,-3,-1,0,-12,-0.5208574789030816,1.4879620786507317,-0.679656659147191,227.15077209472656,674.2473754882812,148.1855010986328,87.22113800048828,175.88743591308594,103.5293960571289,3.0864734649658203
-2,0,11,4,-1,-8,-7,-5,-0.5208574789030816,1.4879620786507317,-0.679656659147191,227.15077209472656,674.2473754882812,148.1855010986328,87.22113800048828,175.88743591308594,103.5293960571289,3.087747097015381
